"","X","func_scale","response_x","response_y","rt","true_x","true_y","tpt","trial_idx","correct","seq_id","subject_id","age","school","shapes_basic","shapes_advanced","acceptance_dist","prev_pt_buffer","min_x","max_x","min_y","max_y","prev_x","prev_y"
"1",15,211.940652222154,NA,NA,NA,0,0,0,1,NA,"hourglass_1","8l625wb2dh",5.1,"preschool","yes","yes",NA,NA,NA,NA,NA,NA,NA,NA
"2",16,211.940652222154,NA,NA,NA,1,0,1,1,NA,"hourglass_1","8l625wb2dh",5.1,"preschool","yes","yes",0.377464158769053,0.141549059538395,-3.14746544799244,4.09984640037339,-2.24155146694671,3.19393241932766,0,0
"3",17,211.940652222154,NA,NA,NA,0,1,2,1,NA,"hourglass_1","8l625wb2dh",5.1,"preschool","yes","yes",0.377464158769053,0.141549059538395,-3.14746544799244,4.09984640037339,-2.24155146694671,3.19393241932766,1,0
"4",18,211.940652222154,-0.465389557195744,1.42982162447682,2063,1,1,3,1,0,"hourglass_1","8l625wb2dh",5.1,"preschool","yes","yes",0.377464158769053,0.141549059538395,-3.14746544799244,4.09984640037339,-2.24155146694671,3.19393241932766,0,1
"5",19,211.940652222154,1.43580032689228,1.03998773657234,3147,0,0,4,1,0,"hourglass_1","8l625wb2dh",5.1,"preschool","yes","yes",0.377464158769053,0.141549059538395,-3.14746544799244,4.09984640037339,-2.24155146694671,3.19393241932766,1,1
"6",20,211.940652222154,-0.0935480025791588,-0.5193478150456,2412,1,0,5,1,0,"hourglass_1","8l625wb2dh",5.1,"preschool","yes","yes",0.377464158769053,0.141549059538395,-3.14746544799244,4.09984640037339,-2.24155146694671,3.19393241932766,0,0
"7",21,211.940652222154,0.548178551355915,0.536202404511157,1822,0,1,6,1,0,"hourglass_1","8l625wb2dh",5.1,"preschool","yes","yes",0.377464158769053,0.141549059538395,-3.14746544799244,4.09984640037339,-2.24155146694671,3.19393241932766,1,0
"8",22,211.940652222154,1.05196388341709,0.926036292415641,796.000000000058,1,1,7,1,1,"hourglass_1","8l625wb2dh",5.1,"preschool","yes","yes",0.377464158769053,0.141549059538395,-3.14746544799244,4.09984640037339,-2.24155146694671,3.19393241932766,0,1
"9",23,211.940652222154,0.0383957748654358,-0.00356759412582086,751.000000000058,0,0,8,1,1,"hourglass_1","8l625wb2dh",5.1,"preschool","yes","yes",0.377464158769053,0.141549059538395,-3.14746544799244,4.09984640037339,-2.24155146694671,3.19393241932766,1,1
"10",24,211.940652222154,0.9080252171139,-0.0215599274137199,256,1,0,9,1,1,"hourglass_1","8l625wb2dh",5.1,"preschool","yes","yes",0.377464158769053,0.141549059538395,-3.14746544799244,4.09984640037339,-2.24155146694671,3.19393241932766,0,0
"11",25,211.940652222154,-0.141527558013557,1.02799284771374,465.000000000058,0,1,10,1,1,"hourglass_1","8l625wb2dh",5.1,"preschool","yes","yes",0.377464158769053,0.141549059538395,-3.14746544799244,4.09984640037339,-2.24155146694671,3.19393241932766,1,0
"12",26,211.940652222154,1.17791021643239,0.94402862570354,575.000000000058,1,1,11,1,1,"hourglass_1","8l625wb2dh",5.1,"preschool","yes","yes",0.377464158769053,0.141549059538395,-3.14746544799244,4.09984640037339,-2.24155146694671,3.19393241932766,0,1
"13",27,211.940652222154,0.0204034415775363,0.0264196280206779,1233.99999999988,0,0,12,1,1,"hourglass_1","8l625wb2dh",5.1,"preschool","yes","yes",0.377464158769053,0.141549059538395,-3.14746544799244,4.09984640037339,-2.24155146694671,3.19393241932766,1,1
"14",28,211.940652222154,0.944009883689699,-0.075536927277418,223.000000000058,1,0,13,1,1,"hourglass_1","8l625wb2dh",5.1,"preschool","yes","yes",0.377464158769053,0.141549059538395,-3.14746544799244,4.09984640037339,-2.24155146694671,3.19393241932766,0,0
"15",29,211.940652222154,-0.345440668609749,1.08196984757743,620.999999999942,0,1,14,1,1,"hourglass_1","8l625wb2dh",5.1,"preschool","yes","yes",0.377464158769053,0.141549059538395,-3.14746544799244,4.09984640037339,-2.24155146694671,3.19393241932766,1,0
"16",30,298.221781319834,NA,NA,NA,0,0,0,2,NA,"triangle_1","8l625wb2dh",5.1,"preschool","yes","yes",NA,NA,NA,NA,NA,NA,NA,NA
"17",31,298.221781319834,NA,NA,NA,1,0,1,2,NA,"triangle_1","8l625wb2dh",5.1,"preschool","yes","yes",0.268256730430439,0.100596273911414,-2.07526461213221,3.07526461213221,-1.64277332450434,2.22012359369397,0,0
"18",32,298.221781319834,NA,NA,NA,0.5,0.866025403784439,2,2,NA,"triangle_1","8l625wb2dh",5.1,"preschool","yes","yes",0.268256730430439,0.100596273911414,-2.07526461213221,3.07526461213221,-1.64277332450434,2.22012359369397,1,0
"19",33,298.221781319834,0.25706382788874,1.07722205390677,1253,-2.22044604925031e-16,3.33066907387547e-16,3,2,0,"triangle_1","8l625wb2dh",5.1,"preschool","yes","yes",0.268256730430439,0.100596273911414,-2.07526461213221,3.07526461213221,-1.64277332450434,2.22012359369397,0.5,0.866025403784439
"20",34,298.221781319834,1.03705956443325,-0.12473858929297,909,1,8.81375475580763e-17,4,2,1,"triangle_1","8l625wb2dh",5.1,"preschool","yes","yes",0.268256730430439,0.100596273911414,-2.07526461213221,3.07526461213221,-1.64277332450434,2.22012359369397,-2.22044604925031e-16,3.33066907387547e-16
"21",35,298.221781319834,0.51706240673691,0.881157551824544,106,0.500000000000001,0.866025403784439,5,2,1,"triangle_1","8l625wb2dh",5.1,"preschool","yes","yes",0.268256730430439,0.100596273911414,-2.07526461213221,3.07526461213221,-1.64277332450434,2.22012359369397,1,8.81375475580763e-17
"22",36,298.221781319834,-0.01572156631262,-0.00965725111427096,205.000000000116,-7.7715611723761e-16,1.4432899320127e-15,6,2,1,"triangle_1","8l625wb2dh",5.1,"preschool","yes","yes",0.268256730430439,0.100596273911414,-2.07526461213221,3.07526461213221,-1.64277332450434,2.22012359369397,0.500000000000001,0.866025403784439
"23",37,298.221781319834,0.951814128745327,0.0329654667296915,564,0.999999999999999,-8.22925627046488e-16,7,2,1,"triangle_1","8l625wb2dh",5.1,"preschool","yes","yes",0.268256730430439,0.100596273911414,-2.07526461213221,3.07526461213221,-1.64277332450434,2.22012359369397,-7.7715611723761e-16,1.4432899320127e-15
"24",38,298.221781319834,0.504275591383722,0.915255726099714,552.000000000116,0.500000000000002,0.866025403784439,8,2,1,"triangle_1","8l625wb2dh",5.1,"preschool","yes","yes",0.268256730430439,0.100596273911414,-2.07526461213221,3.07526461213221,-1.64277332450434,2.22012359369397,0.999999999999999,-8.22925627046488e-16
"25",39,298.221781319834,-0.109491545569337,0.0244409231608991,498,2.22044604925031e-16,1.66533453693773e-15,9,2,1,"triangle_1","8l625wb2dh",5.1,"preschool","yes","yes",0.268256730430439,0.100596273911414,-2.07526461213221,3.07526461213221,-1.64277332450434,2.22012359369397,0.500000000000002,0.866025403784439
"26",40,298.221781319834,0.913453682685761,-0.0181817946830634,164.999999999884,1,9.30546457449323e-16,10,2,1,"triangle_1","8l625wb2dh",5.1,"preschool","yes","yes",0.268256730430439,0.100596273911414,-2.07526461213221,3.07526461213221,-1.64277332450434,2.22012359369397,2.22044604925031e-16,1.66533453693773e-15
"27",41,298.221781319834,0.423292427480194,0.864108464686959,816,0.5,0.866025403784439,11,2,1,"triangle_1","8l625wb2dh",5.1,"preschool","yes","yes",0.268256730430439,0.100596273911414,-2.07526461213221,3.07526461213221,-1.64277332450434,2.22012359369397,1,9.30546457449323e-16
"28",42,298.221781319834,-0.0114592945282235,-0.0181817946830634,175,1.16573417585641e-15,0,12,2,1,"triangle_1","8l625wb2dh",5.1,"preschool","yes","yes",0.268256730430439,0.100596273911414,-2.07526461213221,3.07526461213221,-1.64277332450434,2.22012359369397,0.5,0.866025403784439
"29",43,298.221781319834,0.985912303020498,-0.0181817946830634,136,1,2.57299623948262e-15,13,2,1,"triangle_1","8l625wb2dh",5.1,"preschool","yes","yes",0.268256730430439,0.100596273911414,-2.07526461213221,3.07526461213221,-1.64277332450434,2.22012359369397,1.16573417585641e-15,0
"30",44,298.221781319834,0.495751047814929,0.945091628590488,301,0.499999999999998,0.866025403784439,14,2,1,"triangle_1","8l625wb2dh",5.1,"preschool","yes","yes",0.268256730430439,0.100596273911414,-2.07526461213221,3.07526461213221,-1.64277332450434,2.22012359369397,1,2.57299623948262e-15
"31",45,89.0767281931597,NA,NA,NA,0,0,0,3,NA,"alternating_diff_1","8l625wb2dh",5.1,"preschool","yes","yes",NA,NA,NA,NA,NA,NA,NA,NA
"32",46,89.0767281931597,NA,NA,NA,0,1,1,3,NA,"alternating_diff_1","8l625wb2dh",5.1,"preschool","yes","yes",0.898102137592243,0.336788301597091,-3.85987575898078,13.3836852827903,-5.99014491447367,6.94252586685463,0,0
"33",47,89.0767281931597,NA,NA,NA,1,1,2,3,NA,"alternating_diff_1","8l625wb2dh",5.1,"preschool","yes","yes",0.898102137592243,0.336788301597091,-3.85987575898078,13.3836852827903,-5.99014491447367,6.94252586685463,0,1
"34",48,89.0767281931597,1.02327590820087,-0.137319415020748,1116,1,0,3,3,1,"alternating_diff_1","8l625wb2dh",5.1,"preschool","yes","yes",0.898102137592243,0.336788301597091,-3.85987575898078,13.3836852827903,-5.99014491447367,6.94252586685463,1,1
"35",49,89.0767281931597,-0.189652500066704,0.0339175367346742,560,2,0,4,3,0,"alternating_diff_1","8l625wb2dh",5.1,"preschool","yes","yes",0.898102137592243,0.336788301597091,-3.85987575898078,13.3836852827903,-5.99014491447367,6.94252586685463,1,0
"36",50,89.0767281931597,2.13631609461112,-1.03631341173672,1389,2,1,5,3,0,"alternating_diff_1","8l625wb2dh",5.1,"preschool","yes","yes",0.898102137592243,0.336788301597091,-3.85987575898078,13.3836852827903,-5.99014491447367,6.94252586685463,2,0
"37",51,89.0767281931597,2.5786782199793,1.34673416685958,208,3,1,6,3,1,"alternating_diff_1","8l625wb2dh",5.1,"preschool","yes","yes",0.898102137592243,0.336788301597091,-3.85987575898078,13.3836852827903,-5.99014491447367,6.94252586685463,2,1
"38",52,89.0767281931597,3.09238907524557,-0.351365604715027,968,3,0,7,3,1,"alternating_diff_1","8l625wb2dh",5.1,"preschool","yes","yes",0.898102137592243,0.336788301597091,-3.85987575898078,13.3836852827903,-5.99014491447367,6.94252586685463,3,1
"39",53,89.0767281931597,3.77733688226726,-0.32282611275579,767,4,0,8,3,1,"alternating_diff_1","8l625wb2dh",5.1,"preschool","yes","yes",0.898102137592243,0.336788301597091,-3.85987575898078,13.3836852827903,-5.99014491447367,6.94252586685463,3,0
"40",54,89.0767281931597,3.84868561216535,1.1326879771653,730,4,1,9,3,1,"alternating_diff_1","8l625wb2dh",5.1,"preschool","yes","yes",0.898102137592243,0.336788301597091,-3.85987575898078,13.3836852827903,-5.99014491447367,6.94252586685463,4,0
"41",55,89.0767281931597,4.74767960888132,1.28965518294111,884,5,1,10,3,1,"alternating_diff_1","8l625wb2dh",5.1,"preschool","yes","yes",0.898102137592243,0.336788301597091,-3.85987575898078,13.3836852827903,-5.99014491447367,6.94252586685463,4,1
"42",56,89.0767281931597,4.91891656063674,0.262233472408571,467,5,0,11,3,1,"alternating_diff_1","8l625wb2dh",5.1,"preschool","yes","yes",0.898102137592243,0.336788301597091,-3.85987575898078,13.3836852827903,-5.99014491447367,6.94252586685463,5,1
"43",57,89.0767281931597,6.21746344478203,0.0767267746735296,57,6,0,12,3,1,"alternating_diff_1","8l625wb2dh",5.1,"preschool","yes","yes",0.898102137592243,0.336788301597091,-3.85987575898078,13.3836852827903,-5.99014491447367,6.94252586685463,5,0
"44",58,89.0767281931597,5.83218030333233,1.11841823118568,373,6,1,13,3,1,"alternating_diff_1","8l625wb2dh",5.1,"preschool","yes","yes",0.898102137592243,0.336788301597091,-3.85987575898078,13.3836852827903,-5.99014491447367,6.94252586685463,6,0
"45",59,89.0767281931597,6.9594902357222,0.0481872827142933,173.999999999884,7,1,14,3,0,"alternating_diff_1","8l625wb2dh",5.1,"preschool","yes","yes",0.898102137592243,0.336788301597091,-3.85987575898078,13.3836852827903,-5.99014491447367,6.94252586685463,6,1
"46",60,69.3599847651281,NA,NA,NA,0,0,0,4,NA,"zigzag_3","8l625wb2dh",5.1,"preschool","yes","yes",NA,NA,NA,NA,NA,NA,NA,NA
"47",61,69.3599847651281,NA,NA,NA,-0.993325447527948,-0.115345373957524,1,4,NA,"zigzag_3","8l625wb2dh",5.1,"preschool","yes","yes",1.15340279082964,0.432526046561114,-17.4940009729622,4.65133261096681,-5.02327054760679,11.58572964034,0,0
"48",62,69.3599847651281,NA,NA,NA,-1.9866508950559,-0.230690747915048,2,4,NA,"zigzag_3","8l625wb2dh",5.1,"preschool","yes","yes",1.15340279082964,0.432526046561114,-17.4940009729622,4.65133261096681,-5.02327054760679,11.58572964034,-0.993325447527948,-0.115345373957524
"49",63,69.3599847651281,-3.08591551462686,-0.493845188782751,1374,-2.97997634258385,-0.346036121872572,3,4,1,"zigzag_3","8l625wb2dh",5.1,"preschool","yes","yes",1.15340279082964,0.432526046561114,-17.4940009729622,4.65133261096681,-5.02327054760679,11.58572964034,-1.9866508950559,-0.230690747915048
"50",64,69.3599847651281,-4.24046369055166,-0.567149834873215,151,-3.97330179011179,-0.461381495830096,4,4,1,"zigzag_3","8l625wb2dh",5.1,"preschool","yes","yes",1.15340279082964,0.432526046561114,-17.4940009729622,4.65133261096681,-5.02327054760679,11.58572964034,-2.97997634258385,-0.346036121872572
"51",65,69.3599847651281,-5.2117502512503,-0.695432965531526,126,-4.08864716406932,0.531943951697852,5,4,0,"zigzag_3","8l625wb2dh",5.1,"preschool","yes","yes",1.15340279082964,0.432526046561114,-17.4940009729622,4.65133261096681,-5.02327054760679,11.58572964034,-3.97330179011179,-0.461381495830096
"52",66,69.3599847651281,-4.36874682120997,1.70529419393116,223.999999999884,-4.20399253802684,1.5252693992258,6,4,1,"zigzag_3","8l625wb2dh",5.1,"preschool","yes","yes",1.15340279082964,0.432526046561114,-17.4940009729622,4.65133261096681,-5.02327054760679,11.58572964034,-4.08864716406932,0.531943951697852
"53",67,69.3599847651281,-4.55200843643613,2.60327610853934,193,-4.31933791198437,2.51859484675375,7,4,1,"zigzag_3","8l625wb2dh",5.1,"preschool","yes","yes",1.15340279082964,0.432526046561114,-17.4940009729622,4.65133261096681,-5.02327054760679,11.58572964034,-4.20399253802684,1.5252693992258
"54",68,69.3599847651281,-4.60698692100398,3.57456266923798,391,-4.43468328594189,3.5119202942817,8,4,1,"zigzag_3","8l625wb2dh",5.1,"preschool","yes","yes",1.15340279082964,0.432526046561114,-17.4940009729622,4.65133261096681,-5.02327054760679,11.58572964034,-4.31933791198437,2.51859484675375
"55",69,69.3599847651281,-3.45243874507918,4.19765216100692,294,-5.42800873346984,3.39657492032417,9,4,0,"zigzag_3","8l625wb2dh",5.1,"preschool","yes","yes",1.15340279082964,0.432526046561114,-17.4940009729622,4.65133261096681,-5.02327054760679,11.58572964034,-4.43468328594189,3.5119202942817
"56",70,69.3599847651281,-6.43960307326557,3.28134408487613,552,-6.42133418099779,3.28122954636665,10,4,1,"zigzag_3","8l625wb2dh",5.1,"preschool","yes","yes",1.15340279082964,0.432526046561114,-17.4940009729622,4.65133261096681,-5.02327054760679,11.58572964034,-5.42800873346984,3.39657492032417
"57",71,69.3599847651281,-7.33758498787375,3.44627953857967,96,-7.41465962852574,3.16588417240913,11,4,1,"zigzag_3","8l625wb2dh",5.1,"preschool","yes","yes",1.15340279082964,0.432526046561114,-17.4940009729622,4.65133261096681,-5.02327054760679,11.58572964034,-6.42133418099779,3.28122954636665
"58",72,69.3599847651281,-8.95028720186395,3.2446917618309,858,-8.40798507605369,3.0505387984516,12,4,1,"zigzag_3","8l625wb2dh",5.1,"preschool","yes","yes",1.15340279082964,0.432526046561114,-17.4940009729622,4.65133261096681,-5.02327054760679,11.58572964034,-7.41465962852574,3.16588417240913
"59",73,69.3599847651281,-9.77496447038166,2.58494994701672,166,-8.52333045001121,4.04386424597955,13,4,0,"zigzag_3","8l625wb2dh",5.1,"preschool","yes","yes",1.15340279082964,0.432526046561114,-17.4940009729622,4.65133261096681,-5.02327054760679,11.58572964034,-8.40798507605369,3.0505387984516
"60",74,69.3599847651281,-8.45548084075332,5.33387417540911,439.000000000116,-8.63867582396873,5.0371896935075,14,4,1,"zigzag_3","8l625wb2dh",5.1,"preschool","yes","yes",1.15340279082964,0.432526046561114,-17.4940009729622,4.65133261096681,-5.02327054760679,11.58572964034,-8.52333045001121,4.04386424597955
"61",75,149.110890659918,NA,NA,NA,0,0,0,5,NA,"3_pts","8l625wb2dh",5.1,"preschool","yes","yes",NA,NA,NA,NA,NA,NA,NA,NA
"62",76,149.110890659918,NA,NA,NA,1,0,1,5,NA,"3_pts","8l625wb2dh",5.1,"preschool","yes","yes",0.536513460860874,0.201192547822828,-4.1505292242644,6.15052922426439,-3.8628969181983,3.8628969181983,0,0
"63",77,149.110890659918,NA,NA,NA,2,0,2,5,NA,"3_pts","8l625wb2dh",5.1,"preschool","yes","yes",0.536513460860874,0.201192547822828,-4.1505292242644,6.15052922426439,-3.8628969181983,3.8628969181983,1,0
"64",78,149.110890659918,2.04002095459133,0.579722241075192,1716,0,0,3,5,0,"3_pts","8l625wb2dh",5.1,"preschool","yes","yes",0.536513460860874,0.201192547822828,-4.1505292242644,6.15052922426439,-3.8628969181983,3.8628969181983,2,0
"65",79,149.110890659918,1.07674753131778,0.153495062635569,516,1,0,4,5,1,"3_pts","8l625wb2dh",5.1,"preschool","yes","yes",0.536513460860874,0.201192547822828,-4.1505292242644,6.15052922426439,-3.8628969181983,3.8628969181983,0,0
"66",80,149.110890659918,1.98887369317857,0.0171023655348903,179,2,0,5,5,1,"3_pts","8l625wb2dh",5.1,"preschool","yes","yes",0.536513460860874,0.201192547822828,-4.1505292242644,6.15052922426439,-3.8628969181983,3.8628969181983,1,0
"67",81,149.110890659918,0.846584854960387,-0.0340448958778641,569,0,0,6,5,0,"3_pts","8l625wb2dh",5.1,"preschool","yes","yes",0.536513460860874,0.201192547822828,-4.1505292242644,6.15052922426439,-3.8628969181983,3.8628969181983,2,0
"68",82,149.110890659918,0.88920757280435,-0.0681430701530341,1320,1,0,7,5,1,"3_pts","8l625wb2dh",5.1,"preschool","yes","yes",0.536513460860874,0.201192547822828,-4.1505292242644,6.15052922426439,-3.8628969181983,3.8628969181983,0,0
"69",83,149.110890659918,1.93772643176582,0.281363216167456,160.999999999884,2,0,8,5,1,"3_pts","8l625wb2dh",5.1,"preschool","yes","yes",0.536513460860874,0.201192547822828,-4.1505292242644,6.15052922426439,-3.8628969181983,3.8628969181983,1,0
"70",84,149.110890659918,0.070851390200275,-0.0340448958778641,420,0,0,9,5,1,"3_pts","8l625wb2dh",5.1,"preschool","yes","yes",0.536513460860874,0.201192547822828,-4.1505292242644,6.15052922426439,-3.8628969181983,3.8628969181983,2,0
"71",85,149.110890659918,0.923305747079519,0.110872344791607,664,1,0,10,5,1,"3_pts","8l625wb2dh",5.1,"preschool","yes","yes",0.536513460860874,0.201192547822828,-4.1505292242644,6.15052922426439,-3.8628969181983,3.8628969181983,0,0
"72",86,149.110890659918,2.08264367243529,0.196117780479532,194,2,0,11,5,1,"3_pts","8l625wb2dh",5.1,"preschool","yes","yes",0.536513460860874,0.201192547822828,-4.1505292242644,6.15052922426439,-3.8628969181983,3.8628969181983,1,0
"73",87,149.110890659918,1.00855118276744,0.0341514526724751,753.000000000116,0,0,12,5,0,"3_pts","8l625wb2dh",5.1,"preschool","yes","yes",0.536513460860874,0.201192547822828,-4.1505292242644,6.15052922426439,-3.8628969181983,3.8628969181983,2,0
"74",88,149.110890659918,0.923305747079519,-0.0169958087402793,918,1,0,13,5,1,"3_pts","8l625wb2dh",5.1,"preschool","yes","yes",0.536513460860874,0.201192547822828,-4.1505292242644,6.15052922426439,-3.8628969181983,3.8628969181983,0,0
"75",89,149.110890659918,2.05707004172891,0.0682496269476451,176.000000000116,2,0,14,5,1,"3_pts","8l625wb2dh",5.1,"preschool","yes","yes",0.536513460860874,0.201192547822828,-4.1505292242644,6.15052922426439,-3.8628969181983,3.8628969181983,1,0
"76",105,24.8430238823309,NA,NA,NA,0,0,0,1,NA,"zigzag_widening","uo2uok3t88",6.1,"1st grade","yes","no",NA,NA,NA,NA,NA,NA,NA,NA
"77",106,24.8430238823309,NA,NA,NA,-2.44315781172409,1.13180382885532,1,1,NA,"zigzag_widening","uo2uok3t88",6.1,"1st grade","yes","no",3.22021990474752,1.20758246428032,-38.8404294082047,22.9877927629476,-29.3565238686536,17.0146427597107,0,0
"78",107,24.8430238823309,NA,NA,NA,-1.11135026448239,-1.73634690935738,2,1,NA,"zigzag_widening","uo2uok3t88",6.1,"1st grade","yes","no",3.22021990474752,1.20758246428032,-38.8404294082047,22.9877927629476,-29.3565238686536,17.0146427597107,-2.44315781172409,1.13180382885532
"79",108,24.8430238823309,-0.0466928446810755,-0.593596427490187,1329,-4.24086541420026,0.12272138623758,3,1,0,"zigzag_widening","uo2uok3t88",6.1,"1st grade","yes","no",3.22021990474752,1.20758246428032,-38.8404294082047,22.9877927629476,-29.3565238686536,17.0146427597107,-1.11135026448239,-1.73634690935738
"80",109,24.8430238823309,-4.75390605201806,2.47632522946872,2301,-2.22270052896478,-3.47269381871476,4,1,0,"zigzag_widening","uo2uok3t88",6.1,"1st grade","yes","no",3.22021990474752,1.20758246428032,-38.8404294082047,22.9877927629476,-29.3565238686536,17.0146427597107,-4.24086541420026,0.12272138623758
"81",110,24.8430238823309,-4.95856749581532,-2.28205333881759,2186.00000000012,-6.03857301667643,-0.886361056380159,5,1,1,"zigzag_widening","uo2uok3t88",6.1,"1st grade","yes","no",3.22021990474752,1.20758246428032,-38.8404294082047,22.9877927629476,-29.3565238686536,17.0146427597107,-2.22270052896478,-3.47269381871476
"82",111,24.8430238823309,-0.814173258920796,-5.81246324432033,1880.99999999988,-3.33405079344717,-5.20904072807214,6,1,1,"zigzag_widening","uo2uok3t88",6.1,"1st grade","yes","no",3.22021990474752,1.20758246428032,-38.8404294082047,22.9877927629476,-29.3565238686536,17.0146427597107,-6.03857301667643,-0.886361056380159
"83",112,24.8430238823309,-6.2377015195482,-4.89148674723265,1110.99999999988,-7.8362806191526,-1.8954434989979,7,1,0,"zigzag_widening","uo2uok3t88",6.1,"1st grade","yes","no",3.22021990474752,1.20758246428032,-38.8404294082047,22.9877927629476,-29.3565238686536,17.0146427597107,-3.33405079344717,-5.20904072807214
"84",113,24.8430238823309,-5.06089821771395,-6.37528221476279,2577,-4.44540105792956,-6.94538763742952,8,1,1,"zigzag_widening","uo2uok3t88",6.1,"1st grade","yes","no",3.22021990474752,1.20758246428032,-38.8404294082047,22.9877927629476,-29.3565238686536,17.0146427597107,-7.8362806191526,-1.8954434989979
"85",114,24.8430238823309,-10.3820957564427,-0.798257871287447,943,-9.63398822162877,-2.90452594161564,9,1,1,"zigzag_widening","uo2uok3t88",6.1,"1st grade","yes","no",3.22021990474752,1.20758246428032,-38.8404294082047,22.9877927629476,-29.3565238686536,17.0146427597107,-4.44540105792956,-6.94538763742952
"86",115,24.8430238823309,-3.57710275018381,-10.0080228421642,800,-5.55675132241195,-8.6817345467869,10,1,1,"zigzag_widening","uo2uok3t88",6.1,"1st grade","yes","no",3.22021990474752,1.20758246428032,-38.8404294082047,22.9877927629476,-29.3565238686536,17.0146427597107,-9.63398822162877,-2.90452594161564
"87",116,24.8430238823309,-11.3030722535304,-0.951753954135395,526.000000000116,-11.4316958241049,-3.91360838423338,11,1,1,"zigzag_widening","uo2uok3t88",6.1,"1st grade","yes","no",3.22021990474752,1.20758246428032,-38.8404294082047,22.9877927629476,-29.3565238686536,17.0146427597107,-5.55675132241195,-8.6817345467869
"88",117,24.8430238823309,-3.57710275018381,-11.1336607830491,959.999999999884,-6.66810158689434,-10.4180814561443,12,1,1,"zigzag_widening","uo2uok3t88",6.1,"1st grade","yes","no",3.22021990474752,1.20758246428032,-38.8404294082047,22.9877927629476,-29.3565238686536,17.0146427597107,-11.4316958241049,-3.91360838423338
"89",118,24.8430238823309,-13.196190608655,-2.23088797786827,26,-13.2294034265811,-4.92269082685112,13,1,1,"zigzag_widening","uo2uok3t88",6.1,"1st grade","yes","no",3.22021990474752,1.20758246428032,-38.8404294082047,22.9877927629476,-29.3565238686536,17.0146427597107,-6.66810158689434,-10.4180814561443
"90",119,24.8430238823309,-6.2377015195482,-13.0779444991231,1058,-7.77945185137673,-12.1544283655017,14,1,1,"zigzag_widening","uo2uok3t88",6.1,"1st grade","yes","no",3.22021990474752,1.20758246428032,-38.8404294082047,22.9877927629476,-29.3565238686536,17.0146427597107,-13.2294034265811,-4.92269082685112
"91",120,116.798821200847,NA,NA,NA,0,0,0,2,NA,"zigzag_1","uo2uok3t88",6.1,"1st grade","yes","no",NA,NA,NA,NA,NA,NA,NA,NA
"92",121,116.798821200847,NA,NA,NA,-0.459088015321693,-0.888390789117035,1,2,NA,"zigzag_1","uo2uok3t88",6.1,"1st grade","yes","no",0.68493841956189,0.256851907335709,-10.4627229945855,2.68809466100275,-5.48621651306949,4.37689672862173,0,0
"93",122,116.798821200847,NA,NA,NA,-0.918176030643386,-1.77678157823407,2,2,NA,"zigzag_1","uo2uok3t88",6.1,"1st grade","yes","no",0.68493841956189,0.256851907335709,-10.4627229945855,2.68809466100275,-5.48621651306949,4.37689672862173,-0.459088015321693,-0.888390789117035
"94",123,116.798821200847,-0.916266238720581,-2.80733869236988,1618,-1.22173893317627,-0.823970178110304,3,2,0,"zigzag_1","uo2uok3t88",6.1,"1st grade","yes","no",0.68493841956189,0.256851907335709,-10.4627229945855,2.68809466100275,-5.48621651306949,4.37689672862173,-0.918176030643386,-1.77678157823407
"95",124,116.798821200847,-1.47129081703488,0.272503575531054,1445,-1.52530183570915,0.128841222013462,4,2,1,"zigzag_1","uo2uok3t88",6.1,"1st grade","yes","no",0.68493841956189,0.256851907335709,-10.4627229945855,2.68809466100275,-5.48621651306949,4.37689672862173,-1.22173893317627,-0.823970178110304
"96",125,116.798821200847,-1.71071318415086,0.947239337403343,197,-1.98438985103084,-0.759549567103573,5,2,0,"zigzag_1","uo2uok3t88",6.1,"1st grade","yes","no",0.68493841956189,0.256851907335709,-10.4627229945855,2.68809466100275,-5.48621651306949,4.37689672862173,-1.52530183570915,0.128841222013462
"97",126,116.798821200847,-2.20044075325171,-0.521943369899222,1702.99999999988,-2.44347786635253,-1.64794035622061,6,2,0,"zigzag_1","uo2uok3t88",6.1,"1st grade","yes","no",0.68493841956189,0.256851907335709,-10.4627229945855,2.68809466100275,-5.48621651306949,4.37689672862173,-1.98438985103084,-0.759549567103573
"98",127,116.798821200847,-3.54991227699629,0.479277438040304,3723.99999999988,-2.74704076888542,-0.695128956096842,7,2,0,"zigzag_1","uo2uok3t88",6.1,"1st grade","yes","no",0.68493841956189,0.256851907335709,-10.4627229945855,2.68809466100275,-5.48621651306949,4.37689672862173,-2.44347786635253,-1.64794035622061
"99",128,116.798821200847,-3.37578691909376,-0.576357544243761,2148,-3.0506036714183,0.257682444026925,8,2,0,"zigzag_1","uo2uok3t88",6.1,"1st grade","yes","no",0.68493841956189,0.256851907335709,-10.4627229945855,2.68809466100275,-5.48621651306949,4.37689672862173,-2.74704076888542,-0.695128956096842
"100",129,116.798821200847,-3.74580330463663,-1.68640670087237,1638,-3.50969168673999,-0.63070834509011,9,2,0,"zigzag_1","uo2uok3t88",6.1,"1st grade","yes","no",0.68493841956189,0.256851907335709,-10.4627229945855,2.68809466100275,-5.48621651306949,4.37689672862173,-3.0506036714183,0.257682444026925
"101",130,116.798821200847,-3.58256078160301,-1.65375819626564,5274,-3.96877970206168,-1.51909913420715,10,2,1,"zigzag_1","uo2uok3t88",6.1,"1st grade","yes","no",0.68493841956189,0.256851907335709,-10.4627229945855,2.68809466100275,-5.48621651306949,4.37689672862173,-3.50969168673999,-0.63070834509011
"102",131,116.798821200847,-4.99732931456104,-0.565474709374853,1106,-4.27234260459456,-0.566287734083379,11,2,0,"zigzag_1","uo2uok3t88",6.1,"1st grade","yes","no",0.68493841956189,0.256851907335709,-10.4627229945855,2.68809466100275,-5.48621651306949,4.37689672862173,-3.96877970206168,-1.51909913420715
"103",132,116.798821200847,-4.32259355268875,0.686051300549553,517,-4.57590550712744,0.386523666040387,12,2,1,"zigzag_1","uo2uok3t88",6.1,"1st grade","yes","no",0.68493841956189,0.256851907335709,-10.4627229945855,2.68809466100275,-5.48621651306949,4.37689672862173,-4.27234260459456,-0.566287734083379
"104",133,116.798821200847,-4.88850096587196,-1.44698433375639,754,-5.03499352244914,-0.501867123076648,13,2,0,"zigzag_1","uo2uok3t88",6.1,"1st grade","yes","no",0.68493841956189,0.256851907335709,-10.4627229945855,2.68809466100275,-5.48621651306949,4.37689672862173,-4.57590550712744,0.386523666040387
"105",134,116.798821200847,-5.0843919935123,-1.22932763637823,1933.99999999988,-5.49408153777083,-1.39025791219368,14,2,1,"zigzag_1","uo2uok3t88",6.1,"1st grade","yes","no",0.68493841956189,0.256851907335709,-10.4627229945855,2.68809466100275,-5.48621651306949,4.37689672862173,-5.03499352244914,-0.501867123076648
"106",135,126.048659197836,NA,NA,NA,0,0,0,3,NA,"zigzag_2","uo2uok3t88",6.1,"1st grade","yes","no",NA,NA,NA,NA,NA,NA,NA,NA
"107",136,126.048659197836,NA,NA,NA,-0.172095102735381,0.985080339675145,1,3,NA,"zigzag_2","uo2uok3t88",6.1,"1st grade","yes","no",0.634675533314782,0.238003324993043,-9.5400030242155,2.64576721542831,-2.44740448036998,6.69192319936287,0,0
"108",137,126.048659197836,NA,NA,NA,-0.344190205470762,1.97016067935029,2,3,NA,"zigzag_2","uo2uok3t88",6.1,"1st grade","yes","no",0.634675533314782,0.238003324993043,-9.5400030242155,2.64576721542831,-2.44740448036998,6.69192319936287,-0.172095102735381,0.985080339675145
"109",138,126.048659197836,-1.12771602120088,2.1525750428653,3179,-0.516285308206144,2.95524101902543,3,3,0,"zigzag_2","uo2uok3t88",6.1,"1st grade","yes","no",0.634675533314782,0.238003324993043,-9.5400030242155,2.64576721542831,-2.44740448036998,6.69192319936287,-0.344190205470762,1.97016067935029
"110",139,126.048659197836,-0.825189451199796,3.81647117787128,868,-1.0911526822508,2.13699441667441,4,3,0,"zigzag_2","uo2uok3t88",6.1,"1st grade","yes","no",0.634675533314782,0.238003324993043,-9.5400030242155,2.64576721542831,-2.44740448036998,6.69192319936287,-0.516285308206144,2.95524101902543
"111",140,126.048659197836,-1.35965305820172,1.61811143586338,1898,-1.66602005629546,1.31874781432338,5,3,1,"zigzag_2","uo2uok3t88",6.1,"1st grade","yes","no",0.634675533314782,0.238003324993043,-9.5400030242155,2.64576721542831,-2.44740448036998,6.69192319936287,-1.0911526822508,2.13699441667441
"112",141,126.048659197836,-1.84369557020346,0.468510469859249,707,-2.24088743034012,0.500501211972356,6,3,1,"zigzag_2","uo2uok3t88",6.1,"1st grade","yes","no",0.634675533314782,0.238003324993043,-9.5400030242155,2.64576721542831,-2.44740448036998,6.69192319936287,-1.66602005629546,1.31874781432338
"113",142,126.048659197836,-2.95295966020745,3.24167069486922,2605,-2.4129825330755,1.4855815516475,7,3,0,"zigzag_2","uo2uok3t88",6.1,"1st grade","yes","no",0.634675533314782,0.238003324993043,-9.5400030242155,2.64576721542831,-2.44740448036998,6.69192319936287,-2.24088743034012,0.500501211972356
"114",143,126.048659197836,-2.71093840420658,2.96939678186824,848.999999999884,-2.58507763581088,2.47066189132264,8,3,1,"zigzag_2","uo2uok3t88",6.1,"1st grade","yes","no",0.634675533314782,0.238003324993043,-9.5400030242155,2.64576721542831,-2.44740448036998,6.69192319936287,-2.4129825330755,1.4855815516475
"115",144,126.048659197836,-2.78152793720683,3.11057584786875,2231,-2.75717273854626,3.45574223099779,9,3,1,"zigzag_2","uo2uok3t88",6.1,"1st grade","yes","no",0.634675533314782,0.238003324993043,-9.5400030242155,2.64576721542831,-2.44740448036998,6.69192319936287,-2.58507763581088,2.47066189132264
"116",145,126.048659197836,-2.98321231720755,0.387836717858959,1679,-3.33204011259092,2.63749562864676,10,3,0,"zigzag_2","uo2uok3t88",6.1,"1st grade","yes","no",0.634675533314782,0.238003324993043,-9.5400030242155,2.64576721542831,-2.44740448036998,6.69192319936287,-2.75717273854626,3.45574223099779
"117",146,126.048659197836,-3.87062358921074,1.85004847286422,697,-3.90690748663558,1.81924902629574,11,3,1,"zigzag_2","uo2uok3t88",6.1,"1st grade","yes","no",0.634675533314782,0.238003324993043,-9.5400030242155,2.64576721542831,-2.44740448036998,6.69192319936287,-3.33204011259092,2.63749562864676
"118",147,126.048659197836,-4.15298172121176,0.781121258860372,245,-4.48177486068024,1.00100242394471,12,3,1,"zigzag_2","uo2uok3t88",6.1,"1st grade","yes","no",0.634675533314782,0.238003324993043,-9.5400030242155,2.64576721542831,-2.44740448036998,6.69192319936287,-3.90690748663558,1.81924902629574
"119",148,126.048659197836,-4.7479506422139,1.96097488186461,738.000000000116,-4.65386996341562,1.98608276361986,13,3,1,"zigzag_2","uo2uok3t88",6.1,"1st grade","yes","no",0.634675533314782,0.238003324993043,-9.5400030242155,2.64576721542831,-2.44740448036998,6.69192319936287,-4.48177486068024,1.00100242394471
"120",149,126.048659197836,-4.84879283221426,3.26183913286929,115,-4.825965066151,2.971163103295,14,3,1,"zigzag_2","uo2uok3t88",6.1,"1st grade","yes","no",0.634675533314782,0.238003324993043,-9.5400030242155,2.64576721542831,-2.44740448036998,6.69192319936287,-4.65386996341562,1.98608276361986
"121",150,36.1850941777514,NA,NA,NA,0,0,0,4,NA,"stairs","uo2uok3t88",6.1,"1st grade","yes","no",NA,NA,NA,NA,NA,NA,NA,NA
"122",151,36.1850941777514,NA,NA,NA,-0.483688648008949,1.94063012750686,1,4,NA,"stairs","uo2uok3t88",6.1,"1st grade","yes","no",2.21085509981036,0.829070662428886,-33.1769022905807,9.27151562577831,-4.34448959292318,27.491823844346,0,0
"123",152,36.1850941777514,NA,NA,NA,-2.4616967350034,2.23640708364876,2,4,NA,"stairs","uo2uok3t88",6.1,"1st grade","yes","no",2.21085509981036,0.829070662428886,-33.1769022905807,9.27151562577831,-4.34448959292318,27.491823844346,-0.483688648008949,1.94063012750686
"124",153,36.1850941777514,-5.17292065020714,2.79193990254215,2740,-2.94538538301234,4.17703721115561,3,4,0,"stairs","uo2uok3t88",6.1,"1st grade","yes","no",2.21085509981036,0.829070662428886,-33.1769022905807,9.27151562577831,-4.34448959292318,27.491823844346,-2.4616967350034,2.23640708364876
"125",154,36.1850941777514,-6.47264877243925,3.35398449593982,1599.00000000012,-4.92339347000679,4.47281416729751,4,4,1,"stairs","uo2uok3t88",6.1,"1st grade","yes","no",2.21085509981036,0.829070662428886,-33.1769022905807,9.27151562577831,-4.34448959292318,27.491823844346,-2.94538538301234,4.17703721115561
"126",155,36.1850941777514,-5.59445409525539,6.05882410166611,331,-5.40708211801574,6.41344429480437,5,4,1,"stairs","uo2uok3t88",6.1,"1st grade","yes","no",2.21085509981036,0.829070662428886,-33.1769022905807,9.27151562577831,-4.34448959292318,27.491823844346,-4.92339347000679,4.47281416729751
"127",156,36.1850941777514,-7.77237689467136,5.49677950826844,899,-7.38509020501019,6.70922125094627,6,4,1,"stairs","uo2uok3t88",6.1,"1st grade","yes","no",2.21085509981036,0.829070662428886,-33.1769022905807,9.27151562577831,-4.34448959292318,27.491823844346,-5.40708211801574,6.41344429480437
"128",157,36.1850941777514,-7.56161017214723,8.90417485574181,956,-7.86877885301914,8.64985137845313,7,4,1,"stairs","uo2uok3t88",6.1,"1st grade","yes","no",2.21085509981036,0.829070662428886,-33.1769022905807,9.27151562577831,-4.34448959292318,27.491823844346,-7.38509020501019,6.70922125094627
"129",158,36.1850941777514,-11.4959223259309,6.58574090797642,1091,-9.84678694001358,8.94562833459503,8,4,0,"stairs","uo2uok3t88",6.1,"1st grade","yes","no",2.21085509981036,0.829070662428886,-33.1769022905807,9.27151562577831,-4.34448959292318,27.491823844346,-7.86877885301914,8.64985137845313
"130",159,36.1850941777514,-10.020555268262,11.3279921647693,722.999999999884,-10.3304755880225,10.8862584621019,9,4,1,"stairs","uo2uok3t88",6.1,"1st grade","yes","no",2.21085509981036,0.829070662428886,-33.1769022905807,9.27151562577831,-4.34448959292318,27.491823844346,-9.84678694001358,8.94562833459503
"131",160,36.1850941777514,-13.2171838932113,12.2764424161278,757,-12.308483675017,11.1820354182438,10,4,1,"stairs","uo2uok3t88",6.1,"1st grade","yes","no",2.21085509981036,0.829070662428886,-33.1769022905807,9.27151562577831,-4.34448959292318,27.491823844346,-10.3304755880225,10.8862584621019
"132",161,36.1850941777514,-13.0415449577745,13.7869372608841,505,-12.7921723230259,13.1226655457506,11,4,1,"stairs","uo2uok3t88",6.1,"1st grade","yes","no",2.21085509981036,0.829070662428886,-33.1769022905807,9.27151562577831,-4.34448959292318,27.491823844346,-12.308483675017,11.1820354182438
"133",162,36.1850941777514,-15.5004900538893,13.4005316029232,558.000000000116,-14.7701804100204,13.4184425018925,12,4,1,"stairs","uo2uok3t88",6.1,"1st grade","yes","no",2.21085509981036,0.829070662428886,-33.1769022905807,9.27151562577831,-4.34448959292318,27.491823844346,-12.7921723230259,13.1226655457506
"134",163,36.1850941777514,-14.5871675896181,16.2810101440862,272,-15.2538690580293,15.3590726293994,13,4,1,"stairs","uo2uok3t88",6.1,"1st grade","yes","no",2.21085509981036,0.829070662428886,-33.1769022905807,9.27151562577831,-4.34448959292318,27.491823844346,-14.7701804100204,13.4184425018925
"135",164,36.1850941777514,-17.9594351500041,15.1920487443782,130,-17.2318771450238,15.6548495855413,14,4,1,"stairs","uo2uok3t88",6.1,"1st grade","yes","no",2.21085509981036,0.829070662428886,-33.1769022905807,9.27151562577831,-4.34448959292318,27.491823844346,-15.2538690580293,15.3590726293994
"136",165,72.4980878160786,NA,NA,NA,0,0,0,5,NA,"increasing_lines","uo2uok3t88",6.1,"1st grade","yes","no",NA,NA,NA,NA,NA,NA,NA,NA
"137",166,72.4980878160786,NA,NA,NA,0,1,1,5,NA,"increasing_lines","uo2uok3t88",6.1,"1st grade","yes","no",1.1034773800235,0.413804017508812,-8.92671618155893,12.2600495148923,-4.61170380283586,11.2783704695025,0,0
"138",167,72.4980878160786,NA,NA,NA,1,1,2,5,NA,"increasing_lines","uo2uok3t88",6.1,"1st grade","yes","no",1.1034773800235,0.413804017508812,-8.92671618155893,12.2600495148923,-4.61170380283586,11.2783704695025,0,1
"139",168,72.4980878160786,0.965405147951634,2.10613937316618,2226,0,2,3,5,1,"increasing_lines","uo2uok3t88",6.1,"1st grade","yes","no",1.1034773800235,0.413804017508812,-8.92671618155893,12.2600495148923,-4.61170380283586,11.2783704695025,1,1
"140",169,72.4980878160786,0.474483731615459,2.78992277449157,1861,1,2,4,5,1,"increasing_lines","uo2uok3t88",6.1,"1st grade","yes","no",1.1034773800235,0.413804017508812,-8.92671618155893,12.2600495148923,-4.61170380283586,11.2783704695025,0,2
"141",170,72.4980878160786,0.912806424772759,3.29837709855404,899,2,2,5,5,0,"increasing_lines","uo2uok3t88",6.1,"1st grade","yes","no",1.1034773800235,0.413804017508812,-8.92671618155893,12.2600495148923,-4.61170380283586,11.2783704695025,1,2
"142",171,72.4980878160786,1.87711634971881,3.49123908354325,2267.99999999988,0,3,6,5,0,"increasing_lines","uo2uok3t88",6.1,"1st grade","yes","no",1.1034773800235,0.413804017508812,-8.92671618155893,12.2600495148923,-4.61170380283586,11.2783704695025,2,2
"143",172,72.4980878160786,0.456950823889168,4.45554900848931,2235,1,3,7,5,0,"increasing_lines","uo2uok3t88",6.1,"1st grade","yes","no",1.1034773800235,0.413804017508812,-8.92671618155893,12.2600495148923,-4.61170380283586,11.2783704695025,0,3
"144",173,72.4980878160786,2.06997833470803,3.14058092901741,1829,2,3,8,5,1,"increasing_lines","uo2uok3t88",6.1,"1st grade","yes","no",1.1034773800235,0.413804017508812,-8.92671618155893,12.2600495148923,-4.61170380283586,11.2783704695025,1,3
"145",174,72.4980878160786,-0.244365485162509,4.26268702350009,202,3,3,9,5,0,"increasing_lines","uo2uok3t88",6.1,"1st grade","yes","no",1.1034773800235,0.413804017508812,-8.92671618155893,12.2600495148923,-4.61170380283586,11.2783704695025,2,3
"146",175,72.4980878160786,-0.314497116067677,4.52568063939447,2653.00000000012,0,4,10,5,1,"increasing_lines","uo2uok3t88",6.1,"1st grade","yes","no",1.1034773800235,0.413804017508812,-8.92671618155893,12.2600495148923,-4.61170380283586,11.2783704695025,3,3
"147",176,72.4980878160786,1.10566840976197,4.70100971665739,467.999999999884,1,4,11,5,1,"increasing_lines","uo2uok3t88",6.1,"1st grade","yes","no",1.1034773800235,0.413804017508812,-8.92671618155893,12.2600495148923,-4.61170380283586,11.2783704695025,0,4
"148",177,72.4980878160786,2.24530741197095,4.21008830032122,523,2,4,12,5,1,"increasing_lines","uo2uok3t88",6.1,"1st grade","yes","no",1.1034773800235,0.413804017508812,-8.92671618155893,12.2600495148923,-4.61170380283586,11.2783704695025,1,4
"149",178,72.4980878160786,3.17455152146442,4.21008830032122,1710,3,4,13,5,1,"increasing_lines","uo2uok3t88",6.1,"1st grade","yes","no",1.1034773800235,0.413804017508812,-8.92671618155893,12.2600495148923,-4.61170380283586,11.2783704695025,2,4
"150",179,72.4980878160786,-0.296964208341386,6.27897141202367,746.999999999884,4,4,14,5,0,"increasing_lines","uo2uok3t88",6.1,"1st grade","yes","no",1.1034773800235,0.413804017508812,-8.92671618155893,12.2600495148923,-4.61170380283586,11.2783704695025,3,4
"151",195,296.922427310532,NA,NA,NA,0,0,0,1,NA,"square_2","xjth9e3838",5,"preschool","yes","no",NA,NA,NA,NA,NA,NA,NA,NA
"152",196,296.922427310532,NA,NA,NA,1,0,1,1,NA,"square_2","xjth9e3838",5,"preschool","yes","no",0.269430641277674,0.101036490479128,-0.872248441979953,4.30081987055138,-0.511329188627822,3.36847204577068,0,0
"153",197,296.922427310532,NA,NA,NA,2,0,2,1,NA,"square_2","xjth9e3838",5,"preschool","yes","no",0.269430641277674,0.101036490479128,-0.872248441979953,4.30081987055138,-0.511329188627822,3.36847204577068,1,0
"154",198,296.922427310532,2.8615866689339,-0.074006067308698,2452,3,0,3,1,1,"square_2","xjth9e3838",5,"preschool","yes","no",0.269430641277674,0.101036490479128,-0.872248441979953,4.30081987055138,-0.511329188627822,3.36847204577068,2,0
"155",199,296.922427310532,3.63643387562719,0.00733148477512802,535,3,1,4,1,0,"square_2","xjth9e3838",5,"preschool","yes","no",0.269430641277674,0.101036490479128,-0.872248441979953,4.30081987055138,-0.511329188627822,3.36847204577068,3,0
"156",200,296.922427310532,3.05850916345264,1.52705943160451,469,3,2,5,1,0,"square_2","xjth9e3838",5,"preschool","yes","no",0.269430641277674,0.101036490479128,-0.872248441979953,4.30081987055138,-0.511329188627822,3.36847204577068,3,1
"157",201,296.922427310532,2.87014851652168,2.34899680003054,848,3,3,6,1,0,"square_2","xjth9e3838",5,"preschool","yes","no",0.269430641277674,0.101036490479128,-0.872248441979953,4.30081987055138,-0.511329188627822,3.36847204577068,3,2
"158",202,296.922427310532,2.54907923198026,3.08531569257886,164.999999999884,2,3,7,1,0,"square_2","xjth9e3838",5,"preschool","yes","no",0.269430641277674,0.101036490479128,-0.872248441979953,4.30081987055138,-0.511329188627822,3.36847204577068,3,3
"159",203,296.922427310532,1.56874768318046,3.11100123534217,355,1,3,8,1,0,"square_2","xjth9e3838",5,"preschool","yes","no",0.269430641277674,0.101036490479128,-0.872248441979953,4.30081987055138,-0.511329188627822,3.36847204577068,2,3
"160",204,296.922427310532,0.999384818593678,2.56304298972482,350.000000000116,0,3,9,1,0,"square_2","xjth9e3838",5,"preschool","yes","no",0.269430641277674,0.101036490479128,-0.872248441979953,4.30081987055138,-0.511329188627822,3.36847204577068,1,3
"161",205,296.922427310532,0.0276151173816518,2.64438054180864,958.999999999884,-1.83697019872103e-16,2,10,1,0,"square_2","xjth9e3838",5,"preschool","yes","no",0.269430641277674,0.101036490479128,-0.872248441979953,4.30081987055138,-0.511329188627822,3.36847204577068,0,3
"162",206,296.922427310532,0.0490197363510797,1.39006987020017,4,-3.67394039744206e-16,1,11,1,0,"square_2","xjth9e3838",5,"preschool","yes","no",0.269430641277674,0.101036490479128,-0.872248441979953,4.30081987055138,-0.511329188627822,3.36847204577068,-1.83697019872103e-16,2
"163",207,296.922427310532,0.134638212228791,0.495356797278084,220,-5.51091059616309e-16,0,12,1,0,"square_2","xjth9e3838",5,"preschool","yes","no",0.269430641277674,0.101036490479128,-0.872248441979953,4.30081987055138,-0.511329188627822,3.36847204577068,-3.67394039744206e-16,1
"164",208,296.922427310532,-0.036598739526632,0.0972308844467251,3664.99999999988,1,-2.44929359829471e-16,13,1,0,"square_2","xjth9e3838",5,"preschool","yes","no",0.269430641277674,0.101036490479128,-0.872248441979953,4.30081987055138,-0.511329188627822,3.36847204577068,-5.51091059616309e-16,0
"165",209,296.922427310532,2.73315895511734,0.773616843880646,2987,2,-4.89858719658941e-16,14,1,0,"square_2","xjth9e3838",5,"preschool","yes","no",0.269430641277674,0.101036490479128,-0.872248441979953,4.30081987055138,-0.511329188627822,3.36847204577068,1,-2.44929359829471e-16
"166",210,138.503842135905,NA,NA,NA,1,0,0,2,NA,"f_curly_2","xjth9e3838",5,"preschool","yes","no",NA,NA,NA,NA,NA,NA,NA,NA
"167",211,138.503842135905,NA,NA,NA,0.0653223623952687,0.698984619355586,1,2,NA,"f_curly_2","xjth9e3838",5,"preschool","yes","no",0.577601305251165,0.216600489469187,-8.00193064596212,3.08801441486025,-6.6615903161942,1.65586847942257,1,0
"168",212,138.503842135905,NA,NA,NA,-1.30114361554693,0.0984721441039566,2,2,NA,"f_curly_2","xjth9e3838",5,"preschool","yes","no",0.577601305251165,0.216600489469187,-8.00193064596212,3.08801441486025,-6.6615903161942,1.65586847942257,0.0653223623952687,0.698984619355586
"169",213,138.503842135905,-1.00690351799363,-0.676505093112495,5187,-1.57055935733956,-1.32156131874234,3,2,0,"f_curly_2","xjth9e3838",5,"preschool","yes","no",0.577601305251165,0.216600489469187,-8.00193064596212,3.08801441486025,-6.6615903161942,1.65586847942257,-1.30114361554693,0.0984721441039566
"170",214,138.503842135905,-0.786646416487724,-1.7594358421832,1184,-0.716337814536774,-1.95892427466314,4,2,1,"f_curly_2","xjth9e3838",5,"preschool","yes","no",0.577601305251165,0.216600489469187,-8.00193064596212,3.08801441486025,-6.6615903161942,1.65586847942257,-1.57055935733956,-1.32156131874234
"171",215,138.503842135905,0.167801023371201,-1.73190370449496,114,-0.250550581775501,-1.28317921654756,5,2,0,"f_curly_2","xjth9e3838",5,"preschool","yes","no",0.577601305251165,0.216600489469187,-8.00193064596212,3.08801441486025,-6.6615903161942,1.65586847942257,-0.716337814536774,-1.95892427466314
"172",216,138.503842135905,0.0117855764711852,-1.17208357150078,199,-1.15336468216497,-0.562000023225261,6,2,0,"f_curly_2","xjth9e3838",5,"preschool","yes","no",0.577601305251165,0.216600489469187,-8.00193064596212,3.08801441486025,-6.6615903161942,1.65586847942257,-0.250550581775501,-1.28317921654756
"173",217,138.503842135905,-0.850888071093614,-0.3920063370007,227,-2.53084568360575,-1.12527604624581,7,2,0,"f_curly_2","xjth9e3838",5,"preschool","yes","no",0.577601305251165,0.216600489469187,-8.00193064596212,3.08801441486025,-6.6615903161942,1.65586847942257,-1.15336468216497,-0.562000023225261
"174",218,138.503842135905,-2.6404770208291,-2.02557983983617,615,-2.83907152907645,-2.54402111088937,8,2,1,"f_curly_2","xjth9e3838",5,"preschool","yes","no",0.577601305251165,0.216600489469187,-8.00193064596212,3.08801441486025,-6.6615903161942,1.65586847942257,-2.53084568360575,-1.12527604624581
"175",219,138.503842135905,-2.07147950860551,-2.48444880130681,333,-1.99831034992825,-3.21780799751126,9,2,0,"f_curly_2","xjth9e3838",5,"preschool","yes","no",0.577601305251165,0.216600489469187,-8.00193064596212,3.08801441486025,-6.6615903161942,1.65586847942257,-2.83907152907645,-2.54402111088937
"176",220,138.503842135905,-1.90628668247608,-2.40185238824209,123,-1.50220172082142,-2.5663218973512,10,2,1,"f_curly_2","xjth9e3838",5,"preschool","yes","no",0.577601305251165,0.216600489469187,-8.00193064596212,3.08801441486025,-6.6615903161942,1.65586847942257,-1.99831034992825,-3.21780799751126
"177",221,138.503842135905,-0.63980834881712,-2.31925597517738,248,-2.37243342890271,-1.82401755719137,11,2,0,"f_curly_2","xjth9e3838",5,"preschool","yes","no",0.577601305251165,0.216600489469187,-8.00193064596212,3.08801441486025,-6.6615903161942,1.65586847942257,-1.50220172082142,-2.5663218973512
"178",222,138.503842135905,-2.01641523322903,-1.30974425994198,123,-3.75968791285882,-2.34971215984288,12,2,0,"f_curly_2","xjth9e3838",5,"preschool","yes","no",0.577601305251165,0.216600489469187,-8.00193064596212,3.08801441486025,-6.6615903161942,1.65586847942257,-2.37243342890271,-1.82401755719137
"179",223,138.503842135905,-3.25536142919975,-3.46642837885397,664,-4.10665974582884,-3.76588184681811,13,2,0,"f_curly_2","xjth9e3838",5,"preschool","yes","no",0.577601305251165,0.216600489469187,-8.00193064596212,3.08801441486025,-6.6615903161942,1.65586847942257,-3.75968791285882,-2.34971215984288
"180",224,138.503842135905,-3.01674956923502,-3.50313789577162,445,-3.28056003678854,-4.47562600546816,14,2,0,"f_curly_2","xjth9e3838",5,"preschool","yes","no",0.577601305251165,0.216600489469187,-8.00193064596212,3.08801441486025,-6.6615903161942,1.65586847942257,-4.10665974582884,-3.76588184681811
"181",225,298.542005621069,NA,NA,NA,0,0,0,3,NA,"radial_1","xjth9e3838",5,"preschool","yes","no",NA,NA,NA,NA,NA,NA,NA,NA
"182",226,298.542005621069,NA,NA,NA,0.949595443096897,-0.313478060555453,1,3,NA,"radial_1","xjth9e3838",5,"preschool","yes","no",0.267968990941736,0.100488371603151,-2.61388100372355,2.53112362235779,-1.84721528274069,2.01153818682032,0,0
"183",227,298.542005621069,NA,NA,NA,0,0,2,3,NA,"radial_1","xjth9e3838",5,"preschool","yes","no",0.267968990941736,0.100488371603151,-2.61388100372355,2.53112362235779,-1.84721528274069,2.01153818682032,0.949595443096897,-0.313478060555453
"184",228,298.542005621069,1.52972589816475,1.93002984329951,2732,0.979112807317579,0.20331775757835,3,3,0,"radial_1","xjth9e3838",5,"preschool","yes","no",0.267968990941736,0.100488371603151,-2.61388100372355,2.53112362235779,-1.84721528274069,2.01153818682032,0,0
"185",229,298.542005621069,-0.569320179837655,2.00666844249635,551.000000000116,0,0,4,3,0,"radial_1","xjth9e3838",5,"preschool","yes","no",0.267968990941736,0.100488371603151,-2.61388100372355,2.53112362235779,-1.84721528274069,2.01153818682032,0.979112807317579,0.20331775757835
"186",230,298.542005621069,0.426981609721294,0.754904655614597,1392,0.746277685518547,0.665634746762127,5,3,0,"radial_1","xjth9e3838",5,"preschool","yes","no",0.267968990941736,0.100488371603151,-2.61388100372355,2.53112362235779,-1.84721528274069,2.01153818682032,0,0
"187",231,298.542005621069,0.231127411773809,0.946501153606702,414,0,0,6,3,0,"radial_1","xjth9e3838",5,"preschool","yes","no",0.267968990941736,0.100488371603151,-2.61388100372355,2.53112362235779,-1.84721528274069,2.01153818682032,0.746277685518547,0.665634746762127
"188",232,298.542005621069,-0.275538882916426,0.16308436181676,113,0.313478060555453,0.949595443096897,7,3,0,"radial_1","xjth9e3838",5,"preschool","yes","no",0.267968990941736,0.100488371603151,-2.61388100372355,2.53112362235779,-1.84721528274069,2.01153818682032,0,0
"189",233,298.542005621069,-0.318115882470227,0.133280462129099,75,0,0,8,3,0,"radial_1","xjth9e3838",5,"preschool","yes","no",0.267968990941736,0.100488371603151,-2.61388100372355,2.53112362235779,-1.84721528274069,2.01153818682032,0.313478060555453,0.949595443096897
"190",234,298.542005621069,-0.211673383585724,0.674008356462374,1499,-0.20331775757835,0.979112807317579,9,3,0,"radial_1","xjth9e3838",5,"preschool","yes","no",0.267968990941736,0.100488371603151,-2.61388100372355,2.53112362235779,-1.84721528274069,2.01153818682032,0,0
"191",235,298.542005621069,-0.262765783050286,-0.254170233810493,691,0,0,10,3,0,"radial_1","xjth9e3838",5,"preschool","yes","no",0.267968990941736,0.100488371603151,-2.61388100372355,2.53112362235779,-1.84721528274069,2.01153818682032,-0.20331775757835,0.979112807317579
"192",236,298.542005621069,-0.318115882470227,-0.228624034078212,844,-0.665634746762126,0.746277685518547,11,3,0,"radial_1","xjth9e3838",5,"preschool","yes","no",0.267968990941736,0.100488371603151,-2.61388100372355,2.53112362235779,-1.84721528274069,2.01153818682032,0,0
"193",237,298.542005621069,-0.488423880685432,-0.228624034078212,65,0,0,12,3,0,"radial_1","xjth9e3838",5,"preschool","yes","no",0.267968990941736,0.100488371603151,-2.61388100372355,2.53112362235779,-1.84721528274069,2.01153818682032,-0.665634746762126,0.746277685518547
"194",238,298.542005621069,0.00546931413866192,-0.445766731802598,2028,-0.949595443096897,0.313478060555453,13,3,0,"radial_1","xjth9e3838",5,"preschool","yes","no",0.267968990941736,0.100488371603151,-2.61388100372355,2.53112362235779,-1.84721528274069,2.01153818682032,0,0
"195",239,298.542005621069,0.00546931413866192,-0.360612732694995,415,0,0,14,3,0,"radial_1","xjth9e3838",5,"preschool","yes","no",0.267968990941736,0.100488371603151,-2.61388100372355,2.53112362235779,-1.84721528274069,2.01153818682032,-0.949595443096897,0.313478060555453
"196",240,60.5486300364586,NA,NA,NA,0,0,0,4,NA,"stairs_2","xjth9e3838",5,"preschool","yes","no",NA,NA,NA,NA,NA,NA,NA,NA
"197",241,60.5486300364586,NA,NA,NA,0.998106520400169,-0.0615091370014878,1,4,NA,"stairs_2","xjth9e3838",5,"preschool","yes","no",1.3212520242296,0.495469509086099,-5.32821896779403,20.0398198974142,-3.95493941106251,15.0710897378437,0,0
"198",242,60.5486300364586,NA,NA,NA,1.99621304080034,-0.123018274002975,2,4,NA,"stairs_2","xjth9e3838",5,"preschool","yes","no",1.3212520242296,0.495469509086099,-5.32821896779403,20.0398198974142,-3.95493941106251,15.0710897378437,0.998106520400169,-0.0615091370014878
"199",243,60.5486300364586,5.97032273394095,3.98372530850173,711,2.11923131480331,1.87319476679736,3,4,0,"stairs_2","xjth9e3838",5,"preschool","yes","no",1.3212520242296,0.495469509086099,-5.32821896779403,20.0398198974142,-3.95493941106251,15.0710897378437,1.99621304080034,-0.123018274002975
"200",244,60.5486300364586,3.34618763120093,5.47423404685806,323,3.11733783520348,1.81168562979587,4,4,0,"stairs_2","xjth9e3838",5,"preschool","yes","no",1.3212520242296,0.495469509086099,-5.32821896779403,20.0398198974142,-3.95493941106251,15.0710897378437,2.11923131480331,1.87319476679736
"201",245,60.5486300364586,5.02563409695454,5.8311164208307,641,4.11544435560365,1.75017649279439,5,4,0,"stairs_2","xjth9e3838",5,"preschool","yes","no",1.3212520242296,0.495469509086099,-5.32821896779403,20.0398198974142,-3.95493941106251,15.0710897378437,3.11733783520348,1.81168562979587
"202",246,60.5486300364586,6.30621202709167,7.25864591672127,557,4.23846262960663,3.74638953359472,6,4,0,"stairs_2","xjth9e3838",5,"preschool","yes","no",1.3212520242296,0.495469509086099,-5.32821896779403,20.0398198974142,-3.95493941106251,15.0710897378437,4.11544435560365,1.75017649279439
"203",247,60.5486300364586,3.45115303531053,9.25298859480368,647,5.2365691500068,3.68488039659324,7,4,0,"stairs_2","xjth9e3838",5,"preschool","yes","no",1.3212520242296,0.495469509086099,-5.32821896779403,20.0398198974142,-3.95493941106251,15.0710897378437,4.23846262960663,3.74638953359472
"204",248,60.5486300364586,4.43782783394078,8.39227228110495,3709,6.23467567040696,3.62337125959175,8,4,0,"stairs_2","xjth9e3838",5,"preschool","yes","no",1.3212520242296,0.495469509086099,-5.32821896779403,20.0398198974142,-3.95493941106251,15.0710897378437,5.2365691500068,3.68488039659324
"205",249,60.5486300364586,4.41683475311886,8.37127920028303,20,6.35769394440994,5.61958430039209,9,4,0,"stairs_2","xjth9e3838",5,"preschool","yes","no",1.3212520242296,0.495469509086099,-5.32821896779403,20.0398198974142,-3.95493941106251,15.0710897378437,6.23467567040696,3.62337125959175
"206",250,60.5486300364586,8.5314785942152,8.644189250968,195,7.35580046481011,5.5580751633906,10,4,0,"stairs_2","xjth9e3838",5,"preschool","yes","no",1.3212520242296,0.495469509086099,-5.32821896779403,20.0398198974142,-3.95493941106251,15.0710897378437,6.35769394440994,5.61958430039209
"207",251,60.5486300364586,9.64411187777697,8.41326536192688,80,8.35390698521027,5.49656602638911,11,4,0,"stairs_2","xjth9e3838",5,"preschool","yes","no",1.3212520242296,0.495469509086099,-5.32821896779403,20.0398198974142,-3.95493941106251,15.0710897378437,7.35580046481011,5.5580751633906
"208",252,60.5486300364586,11.0716413736675,9.50490556466672,7943.99999999988,8.47692525921325,7.49277906718945,12,4,0,"stairs_2","xjth9e3838",5,"preschool","yes","no",1.3212520242296,0.495469509086099,-5.32821896779403,20.0398198974142,-3.95493941106251,15.0710897378437,8.35390698521027,5.49656602638911
"209",253,60.5486300364586,9.37120182709201,9.5888778879544,176,9.47503177961342,7.43126993018796,13,4,0,"stairs_2","xjth9e3838",5,"preschool","yes","no",1.3212520242296,0.495469509086099,-5.32821896779403,20.0398198974142,-3.95493941106251,15.0710897378437,8.47692525921325,7.49277906718945
"210",254,60.5486300364586,11.3655445051744,9.75682253452976,272.999999999884,10.4731383000136,7.36976079318647,14,4,0,"stairs_2","xjth9e3838",5,"preschool","yes","no",1.3212520242296,0.495469509086099,-5.32821896779403,20.0398198974142,-3.95493941106251,15.0710897378437,9.47503177961342,7.43126993018796
"211",270,149.185240297642,NA,NA,NA,0,0,0,1,NA,"plus","omevldfc7p",6,"kindergarten","yes","yes",NA,NA,NA,NA,NA,NA,NA,NA
"212",271,149.185240297642,NA,NA,NA,0.0355709503422215,-0.999367153498528,1,1,NA,"plus","omevldfc7p",6,"kindergarten","yes","yes",0.536246077965827,0.201092279237185,-5.00519561225786,5.29072908468601,-3.85589019701935,3.86605332568856,0,0
"213",272,149.185240297642,NA,NA,NA,0.071141900684443,-1.99873430699706,2,1,NA,"plus","omevldfc7p",6,"kindergarten","yes","yes",0.536246077965827,0.201092279237185,-5.00519561225786,5.29072908468601,-3.85589019701935,3.86605332568856,0.0355709503422215,-0.999367153498528
"214",273,149.185240297642,0.151313657317705,-2.9428873165105,1470.00000000012,0,0,3,1,0,"plus","omevldfc7p",6,"kindergarten","yes","yes",0.536246077965827,0.201092279237185,-5.00519561225786,5.29072908468601,-3.85589019701935,3.86605332568856,0.071141900684443,-1.99873430699706
"215",274,149.185240297642,0.032029524781116,1.27465879817604,1681,0.999367153498528,0.0355709503422214,4,1,0,"plus","omevldfc7p",6,"kindergarten","yes","yes",0.536246077965827,0.201092279237185,-5.00519561225786,5.29072908468601,-3.85589019701935,3.86605332568856,0,0
"216",275,149.185240297642,1.24191144050938,1.03609053310286,1403.00000000012,1.99873430699706,0.0711419006844429,5,1,0,"plus","omevldfc7p",6,"kindergarten","yes","yes",0.536246077965827,0.201092279237185,-5.00519561225786,5.29072908468601,-3.85589019701935,3.86605332568856,0.999367153498528,0.0355709503422214
"217",276,149.185240297642,3.28678228399376,0.0647768824477808,1015.00000000012,0,0,6,1,0,"plus","omevldfc7p",6,"kindergarten","yes","yes",0.536246077965827,0.201092279237185,-5.00519561225786,5.29072908468601,-3.85589019701935,3.86605332568856,1.99873430699706,0.0711419006844429
"218",277,149.185240297642,-0.462147595727609,0.107378358353706,1562,-0.0355709503422214,0.999367153498528,7,1,0,"plus","omevldfc7p",6,"kindergarten","yes","yes",0.536246077965827,0.201092279237185,-5.00519561225786,5.29072908468601,-3.85589019701935,3.86605332568856,0,0
"219",278,149.185240297642,-0.0361328366683633,2.23745215364994,639,-0.0711419006844428,1.99873430699706,8,1,1,"plus","omevldfc7p",6,"kindergarten","yes","yes",0.536246077965827,0.201092279237185,-5.00519561225786,5.29072908468601,-3.85589019701935,3.86605332568856,-0.0355709503422214,0.999367153498528
"220",279,149.185240297642,-0.198018445110876,2.90203517778236,500,0,0,9,1,0,"plus","omevldfc7p",6,"kindergarten","yes","yes",0.536246077965827,0.201092279237185,-5.00519561225786,5.29072908468601,-3.85589019701935,3.86605332568856,-0.0711419006844428,1.99873430699706
"221",280,149.185240297642,0.032029524781116,-0.642407617590568,643.000000000116,-0.999367153498528,-0.0355709503422213,10,1,0,"plus","omevldfc7p",6,"kindergarten","yes","yes",0.536246077965827,0.201092279237185,-5.00519561225786,5.29072908468601,-3.85589019701935,3.86605332568856,0,0
"222",281,149.185240297642,-1.63794833073113,0.0818174728101506,1720,-1.99873430699706,-0.0711419006844426,11,1,1,"plus","omevldfc7p",6,"kindergarten","yes","yes",0.536246077965827,0.201092279237185,-5.00519561225786,5.29072908468601,-3.85589019701935,3.86605332568856,-0.999367153498528,-0.0355709503422213
"223",282,149.185240297642,-2.83930995127821,0.0136551113606713,376,0,0,12,1,0,"plus","omevldfc7p",6,"kindergarten","yes","yes",0.536246077965827,0.201092279237185,-5.00519561225786,5.29072908468601,-3.85589019701935,3.86605332568856,-1.99873430699706,-0.0711419006844426
"224",283,149.185240297642,-0.155416969204953,2.29709421991823,934,0.0355709503422217,-0.999367153498528,13,1,0,"plus","omevldfc7p",6,"kindergarten","yes","yes",0.536246077965827,0.201092279237185,-5.00519561225786,5.29072908468601,-3.85589019701935,3.86605332568856,0,0
"225",284,149.185240297642,0.0490701151434862,-1.88637071404357,436,0.0711419006844434,-1.99873430699706,14,1,1,"plus","omevldfc7p",6,"kindergarten","yes","yes",0.536246077965827,0.201092279237185,-5.00519561225786,5.29072908468601,-3.85589019701935,3.86605332568856,0.0355709503422217,-0.999367153498528
"226",285,44.5383640965798,NA,NA,NA,0,0,0,2,NA,"sine","omevldfc7p",6,"kindergarten","yes","yes",NA,NA,NA,NA,NA,NA,NA,NA
"227",286,44.5383640965798,NA,NA,NA,1,2.52441295442369,1,2,NA,"sine","omevldfc7p",6,"kindergarten","yes","yes",1.79620427518449,0.673576603194183,-7.2435610417711,27.2435610417711,-12.7900676549826,13.075273907674,0,0
"228",287,44.5383640965798,NA,NA,NA,2,2.72789228047704,2,2,NA,"sine","omevldfc7p",6,"kindergarten","yes","yes",1.79620427518449,0.673576603194183,-7.2435610417711,27.2435610417711,-12.7900676549826,13.075273907674,1,2.52441295442369
"229",288,44.5383640965798,5.71916539202679,3.39628358152346,824,3,0.423360024179602,3,2,0,"sine","omevldfc7p",6,"kindergarten","yes","yes",1.79620427518449,0.673576603194183,-7.2435610417711,27.2435610417711,-12.7900676549826,13.075273907674,2,2.72789228047704
"230",289,44.5383640965798,4.12095384230951,-2.59700972991634,444,4,-2.27040748592378,4,2,1,"sine","omevldfc7p",6,"kindergarten","yes","yes",1.79620427518449,0.673576603194183,-7.2435610417711,27.2435610417711,-12.7900676549826,13.075273907674,3,0.423360024179602
"231",290,44.5383640965798,5.262533520679,-4.82309010273684,327,5,-2.87677282398942,5,2,0,"sine","omevldfc7p",6,"kindergarten","yes","yes",1.79620427518449,0.673576603194183,-7.2435610417711,27.2435610417711,-12.7900676549826,13.075273907674,4,-2.27040748592378
"232",291,44.5383640965798,11.5697612436704,2.31178288707245,720,6,-0.838246494596778,6,2,0,"sine","omevldfc7p",6,"kindergarten","yes","yes",1.79620427518449,0.673576603194183,-7.2435610417711,27.2435610417711,-12.7900676549826,13.075273907674,5,-2.87677282398942
"233",292,44.5383640965798,7.54569287741797,0.913347781069827,87,7,1.97095979615637,7,2,1,"sine","omevldfc7p",6,"kindergarten","yes","yes",1.79620427518449,0.673576603194183,-7.2435610417711,27.2435610417711,-12.7900676549826,13.075273907674,6,-0.838246494596778
"234",293,44.5383640965798,6.43265269100772,1.02750574890678,1889,8,2.96807473987015,8,2,0,"sine","omevldfc7p",6,"kindergarten","yes","yes",1.79620427518449,0.673576603194183,-7.2435610417711,27.2435610417711,-12.7900676549826,13.075273907674,7,1.97095979615637
"235",294,44.5383640965798,9.68615477436076,3.68167850111583,459,9,1.23635545572527,9,2,0,"sine","omevldfc7p",6,"kindergarten","yes","yes",1.79620427518449,0.673576603194183,-7.2435610417711,27.2435610417711,-12.7900676549826,13.075273907674,8,2.96807473987015
"236",295,44.5383640965798,9.71469426632,0.998966256947538,82,10,-1.63206333266811,10,2,0,"sine","omevldfc7p",6,"kindergarten","yes","yes",1.79620427518449,0.673576603194183,-7.2435610417711,27.2435610417711,-12.7900676549826,13.075273907674,9,1.23635545572527
"237",296,44.5383640965798,12.8540383818361,-0.599245292769742,2906,11,-2.99997061965211,11,2,0,"sine","omevldfc7p",6,"kindergarten","yes","yes",1.79620427518449,0.673576603194183,-7.2435610417711,27.2435610417711,-12.7900676549826,13.075273907674,10,-1.63206333266811
"238",297,44.5383640965798,13.7958416164909,-2.76824668167177,811,12,-1.6097187540013,12,2,0,"sine","omevldfc7p",6,"kindergarten","yes","yes",1.79620427518449,0.673576603194183,-7.2435610417711,27.2435610417711,-12.7900676549826,13.075273907674,11,-2.99997061965211
"239",298,44.5383640965798,12.4544854944068,0.371097433844321,38,13,1.26050111047992,13,2,1,"sine","omevldfc7p",6,"kindergarten","yes","yes",1.79620427518449,0.673576603194183,-7.2435610417711,27.2435610417711,-12.7900676549826,13.075273907674,12,-1.6097187540013
"240",299,44.5383640965798,13.6531441566947,2.85403323429795,444.000000000116,14,2.97182206708461,14,2,1,"sine","omevldfc7p",6,"kindergarten","yes","yes",1.79620427518449,0.673576603194183,-7.2435610417711,27.2435610417711,-12.7900676549826,13.075273907674,13,1.26050111047992
"241",300,298.181657880505,NA,NA,NA,0,0,0,3,NA,"hexagon","omevldfc7p",6,"kindergarten","yes","yes",NA,NA,NA,NA,NA,NA,NA,NA
"242",301,298.181657880505,NA,NA,NA,1,0,1,3,NA,"hexagon","omevldfc7p",6,"kindergarten","yes","yes",0.268292827159945,0.100609810184979,-2.02799209311642,3.12323018835452,-1.1481615616514,2.71525514945181,0,0
"243",302,298.181657880505,NA,NA,NA,1.5,0.866025403784439,2,3,NA,"hexagon","omevldfc7p",6,"kindergarten","yes","yes",0.268292827159945,0.100609810184979,-2.02799209311642,3.12323018835452,-1.1481615616514,2.71525514945181,1,0
"244",303,298.181657880505,1.59202947175842,1.42726307960144,834.999999999884,1,1.73205080756888,3,3,0,"hexagon","omevldfc7p",6,"kindergarten","yes","yes",0.268292827159945,0.100609810184979,-2.02799209311642,3.12323018835452,-1.1481615616514,2.71525514945181,1.5,0.866025403784439
"245",304,298.181657880505,0.274810268701049,1.72139940649775,4056,2.22044604925031e-16,1.73205080756888,4,3,0,"hexagon","omevldfc7p",6,"kindergarten","yes","yes",0.268292827159945,0.100609810184979,-2.02799209311642,3.12323018835452,-1.1481615616514,2.71525514945181,1,1.73205080756888
"246",305,298.181657880505,-0.535130341593124,1.06918407294507,2206,-0.5,0.866025403784439,5,3,1,"hexagon","omevldfc7p",6,"kindergarten","yes","yes",0.268292827159945,0.100609810184979,-2.02799209311642,3.12323018835452,-1.1481615616514,2.71525514945181,2.22044604925031e-16,1.73205080756888
"247",306,298.181657880505,0.0233023949781219,0.00347274361063055,324,-8.88178419700125e-16,0,6,3,1,"hexagon","omevldfc7p",6,"kindergarten","yes","yes",0.268292827159945,0.100609810184979,-2.02799209311642,3.12323018835452,-1.1481615616514,2.71525514945181,-0.5,0.866025403784439
"248",307,298.181657880505,0.100033610690201,-0.559222838277953,3750,0.999999999999999,-1.1331077795296e-15,7,3,0,"hexagon","omevldfc7p",6,"kindergarten","yes","yes",0.268292827159945,0.100609810184979,-2.02799209311642,3.12323018835452,-1.1481615616514,2.71525514945181,-8.88178419700125e-16,0
"249",308,298.181657880505,1.00801966328314,-0.46970308661386,184,1.5,0.866025403784437,8,3,0,"hexagon","omevldfc7p",6,"kindergarten","yes","yes",0.268292827159945,0.100609810184979,-2.02799209311642,3.12323018835452,-1.1481615616514,2.71525514945181,0.999999999999999,-1.1331077795296e-15
"250",309,298.181657880505,1.00801966328314,1.74697647840177,32.0000000001164,1,1.73205080756888,9,3,1,"hexagon","omevldfc7p",6,"kindergarten","yes","yes",0.268292827159945,0.100609810184979,-2.02799209311642,3.12323018835452,-1.1481615616514,2.71525514945181,1.5,0.866025403784437
"251",310,298.181657880505,0.0105138590261085,1.72992509713242,26,1.33226762955019e-15,1.73205080756888,10,3,1,"hexagon","omevldfc7p",6,"kindergarten","yes","yes",0.268292827159945,0.100609810184979,-2.02799209311642,3.12323018835452,-1.1481615616514,2.71525514945181,1,1.73205080756888
"252",311,298.181657880505,-0.564970258814488,0.87735603366487,599.999999999884,-0.499999999999999,0.866025403784438,11,3,1,"hexagon","omevldfc7p",6,"kindergarten","yes","yes",0.268292827159945,0.100609810184979,-2.02799209311642,3.12323018835452,-1.1481615616514,2.71525514945181,1.33226762955019e-15,1.73205080756888
"253",312,298.181657880505,-0.0832687379553221,0.0503640421013458,200,2.16493489801906e-15,-6.66133814775094e-16,12,3,1,"hexagon","omevldfc7p",6,"kindergarten","yes","yes",0.268292827159945,0.100609810184979,-2.02799209311642,3.12323018835452,-1.1481615616514,2.71525514945181,-0.499999999999999,0.866025403784438
"254",313,298.181657880505,1.02080819923516,0.0119984342453061,275.999999999884,1,6.20364304966215e-16,13,3,1,"hexagon","omevldfc7p",6,"kindergarten","yes","yes",0.268292827159945,0.100609810184979,-2.02799209311642,3.12323018835452,-1.1481615616514,2.71525514945181,2.16493489801906e-15,-6.66133814775094e-16
"255",314,298.181657880505,1.53234963731569,0.890144569616883,201.000000000116,1.5,0.86602540378444,14,3,1,"hexagon","omevldfc7p",6,"kindergarten","yes","yes",0.268292827159945,0.100609810184979,-2.02799209311642,3.12323018835452,-1.1481615616514,2.71525514945181,1,6.20364304966215e-16
"256",315,95.6309122915641,NA,NA,NA,1,1,0,4,NA,"spiral_outward","omevldfc7p",6,"kindergarten","yes","yes",NA,NA,NA,NA,NA,NA,NA,NA
"257",316,95.6309122915641,NA,NA,NA,1.75,1,1,4,NA,"spiral_outward","omevldfc7p",6,"kindergarten","yes","yes",0.836549585097465,0.313706094411549,-7.29707458568564,8.76467744818569,-3.92398432085344,8.12232970455005,1,1
"258",317,95.6309122915641,NA,NA,NA,2.45788987007808,1.51431209575591,2,4,NA,"spiral_outward","omevldfc7p",6,"kindergarten","yes","yes",0.836549585097465,0.313706094411549,-7.29707458568564,8.76467744818569,-3.92398432085344,8.12232970455005,1.75,1
"259",318,95.6309122915641,3.07319116224676,2.88346908041883,1018,2.76690686445303,2.46536861205107,3,4,1,"spiral_outward","omevldfc7p",6,"kindergarten","yes","yes",0.836549585097465,0.313706094411549,-7.29707458568564,8.76467744818569,-3.92398432085344,8.12232970455005,2.45788987007808,1.51431209575591
"260",319,95.6309122915641,2.92698190010461,3.73414115106412,877,2.41926274578121,3.53530719288312,4,4,1,"spiral_outward","omevldfc7p",6,"kindergarten","yes","yes",0.836549585097465,0.313706094411549,-7.29707458568564,8.76467744818569,-3.92398432085344,8.12232970455005,2.76690686445303,2.46536861205107
"261",320,95.6309122915641,1.47818102978685,2.96321958704183,221,1.40799150281253,4.27003875824871,5,4,0,"spiral_outward","omevldfc7p",6,"kindergarten","yes","yes",0.836549585097465,0.313706094411549,-7.29707458568564,8.76467744818569,-3.92398432085344,8.12232970455005,2.41926274578121,3.53530719288312
"262",321,95.6309122915641,0.574341954726233,4.73102248385156,39.9999999998836,0.0329915028125267,4.27003875824871,6,4,1,"spiral_outward","omevldfc7p",6,"kindergarten","yes","yes",0.836549585097465,0.313706094411549,-7.29707458568564,8.76467744818569,-3.92398432085344,8.12232970455005,1.40799150281253,4.27003875824871
"263",322,95.6309122915641,-0.263038364815221,3.14930410249548,94,-1.18053398874989,3.38836087981,7,4,0,"spiral_outward","omevldfc7p",6,"kindergarten","yes","yes",0.836549585097465,0.313706094411549,-7.29707458568564,8.76467744818569,-3.92398432085344,8.12232970455005,0.0329915028125267,4.27003875824871
"264",323,95.6309122915641,-1.00737642662985,2.23217327633103,328,-1.68268660460918,1.84289404083037,8,4,1,"spiral_outward","omevldfc7p",6,"kindergarten","yes","yes",0.836549585097465,0.313706094411549,-7.29707458568564,8.76467744818569,-3.92398432085344,8.12232970455005,-1.18053398874989,3.38836087981
"265",324,95.6309122915641,-0.648499146826367,1.22200019243975,602.000000000116,-1.14190686445303,0.178545137313854,9,4,0,"spiral_outward","omevldfc7p",6,"kindergarten","yes","yes",0.836549585097465,0.313706094411549,-7.29707458568564,8.76467744818569,-3.92398432085344,8.12232970455005,-1.68268660460918,1.84289404083037
"266",325,95.6309122915641,-0.688374400137866,0.132076601925479,182,0.375,-0.923552210734534,10,4,0,"spiral_outward","omevldfc7p",6,"kindergarten","yes","yes",0.836549585097465,0.313706094411549,-7.29707458568564,8.76467744818569,-3.92398432085344,8.12232970455005,-1.14190686445303,0.178545137313854
"267",326,95.6309122915641,0.999677990048877,-0.638844962096813,19,2.375,-0.923552210734534,11,4,0,"spiral_outward","omevldfc7p",6,"kindergarten","yes","yes",0.836549585097465,0.313706094411549,-7.29707458568564,8.76467744818569,-3.92398432085344,8.12232970455005,0.375,-0.923552210734534
"268",327,95.6309122915641,2.36872835374364,-0.57238620657765,752,4.09416111304676,0.325491450386971,12,4,0,"spiral_outward","omevldfc7p",6,"kindergarten","yes","yes",0.836549585097465,0.313706094411549,-7.29707458568564,8.76467744818569,-3.92398432085344,8.12232970455005,2.375,-0.923552210734534
"269",328,95.6309122915641,4.48211677925302,1.6074609744509,43,4.7894493503904,2.46536861205107,13,4,0,"spiral_outward","omevldfc7p",6,"kindergarten","yes","yes",0.836549585097465,0.313706094411549,-7.29707458568564,8.76467744818569,-3.92398432085344,8.12232970455005,4.09416111304676,0.325491450386971
"270",329,95.6309122915641,4.85428581016033,3.53476488450663,113,4.0555339887499,4.72412783825206,14,4,0,"spiral_outward","omevldfc7p",6,"kindergarten","yes","yes",0.836549585097465,0.313706094411549,-7.29707458568564,8.76467744818569,-3.92398432085344,8.12232970455005,4.7894493503904,2.46536861205107
"271",330,222.691820482899,NA,NA,NA,0,0,0,5,NA,"square_spiral","omevldfc7p",6,"kindergarten","yes","yes",NA,NA,NA,NA,NA,NA,NA,NA
"272",331,222.691820482899,NA,NA,NA,6.12323399573677e-17,1,1,5,NA,"square_spiral","omevldfc7p",6,"kindergarten","yes","yes",0.359240855036898,0.134715320638837,-4.59156935121136,2.30585506549708,-2.30081987055138,2.87224844197995,0,0
"273",332,222.691820482899,NA,NA,NA,-1,1,2,5,NA,"square_spiral","omevldfc7p",6,"kindergarten","yes","yes",0.359240855036898,0.134715320638837,-4.59156935121136,2.30585506549708,-2.30081987055138,2.87224844197995,6.12323399573677e-17,1
"274",333,222.691820482899,-1.01155764266218,0.0688498211890329,859,-2,1,3,5,0,"square_spiral","omevldfc7p",6,"kindergarten","yes","yes",0.359240855036898,0.134715320638837,-4.59156935121136,2.30585506549708,-2.30081987055138,2.87224844197995,-1,1
"275",334,222.691820482899,-1.85061870626375,0.399907927916185,1149,-2,4.44089209850063e-16,4,5,0,"square_spiral","omevldfc7p",6,"kindergarten","yes","yes",0.359240855036898,0.134715320638837,-4.59156935121136,2.30585506549708,-2.30081987055138,2.87224844197995,-2,1
"276",335,222.691820482899,-0.0240912208725703,0.0574340244053384,409,-2,-1,5,5,0,"square_spiral","omevldfc7p",6,"kindergarten","yes","yes",0.359240855036898,0.134715320638837,-4.59156935121136,2.30585506549708,-2.30081987055138,2.87224844197995,-2,4.44089209850063e-16
"277",336,222.691820482899,0.181393121233937,-0.735963852061456,94.0000000002328,-1,-1,6,5,0,"square_spiral","omevldfc7p",6,"kindergarten","yes","yes",0.359240855036898,0.134715320638837,-4.59156935121136,2.30585506549708,-2.30081987055138,2.87224844197995,-2,-1
"278",337,222.691820482899,0.0272798646540569,-0.821582327939167,1835,0,-1,7,5,1,"square_spiral","omevldfc7p",6,"kindergarten","yes","yes",0.359240855036898,0.134715320638837,-4.59156935121136,2.30585506549708,-2.30081987055138,2.87224844197995,-1,-1
"279",338,222.691820482899,-0.0811702047910439,0.0688498211890329,3444,1,-1,8,5,0,"square_spiral","omevldfc7p",6,"kindergarten","yes","yes",0.359240855036898,0.134715320638837,-4.59156935121136,2.30585506549708,-2.30081987055138,2.87224844197995,0,-1
"280",339,222.691820482899,0.906296216998562,-0.285039879105508,802,1,-2.22044604925031e-16,9,5,1,"square_spiral","omevldfc7p",6,"kindergarten","yes","yes",0.359240855036898,0.134715320638837,-4.59156935121136,2.30585506549708,-2.30081987055138,2.87224844197995,1,-1
"281",340,222.691820482899,-0.0297991192644176,0.125928805107507,117,1,1,10,5,0,"square_spiral","omevldfc7p",6,"kindergarten","yes","yes",0.359240855036898,0.134715320638837,-4.59156935121136,2.30585506549708,-2.30081987055138,2.87224844197995,1,-2.22044604925031e-16
"282",341,222.691820482899,0.0957746453562267,0.942158275141691,518,1,2,11,5,0,"square_spiral","omevldfc7p",6,"kindergarten","yes","yes",0.359240855036898,0.134715320638837,-4.59156935121136,2.30585506549708,-2.30081987055138,2.87224844197995,1,1
"283",342,222.691820482899,1.0432857784029,2.6031567071693,64,6.66133814775094e-16,2,12,5,0,"square_spiral","omevldfc7p",6,"kindergarten","yes","yes",0.359240855036898,0.134715320638837,-4.59156935121136,2.30585506549708,-2.30081987055138,2.87224844197995,1,2
"284",343,222.691820482899,-0.71474692628611,2.00953527441716,213,-0.999999999999999,2,13,5,1,"square_spiral","omevldfc7p",6,"kindergarten","yes","yes",0.359240855036898,0.134715320638837,-4.59156935121136,2.30585506549708,-2.30081987055138,2.87224844197995,6.66133814775094e-16,2
"285",344,222.691820482899,-1.82207921430451,2.0380747663764,615,-2,2,14,5,1,"square_spiral","omevldfc7p",6,"kindergarten","yes","yes",0.359240855036898,0.134715320638837,-4.59156935121136,2.30585506549708,-2.30081987055138,2.87224844197995,-0.999999999999999,2
"286",360,24.8430238823309,NA,NA,NA,0,0,0,1,NA,"zigzag_widening","zr9sdyq4d7",4.1,"preschool","yes","no",NA,NA,NA,NA,NA,NA,NA,NA
"287",361,24.8430238823309,NA,NA,NA,-2.44315781172409,1.13180382885532,1,1,NA,"zigzag_widening","zr9sdyq4d7",4.1,"preschool","yes","no",3.22021990474752,1.20758246428032,-38.8404294082047,22.9877927629476,-29.3565238686536,17.0146427597107,0,0
"288",362,24.8430238823309,NA,NA,NA,-1.11135026448239,-1.73634690935738,2,1,NA,"zigzag_widening","zr9sdyq4d7",4.1,"preschool","yes","no",3.22021990474752,1.20758246428032,-38.8404294082047,22.9877927629476,-29.3565238686536,17.0146427597107,-2.44315781172409,1.13180382885532
"289",363,24.8430238823309,-0.507181093224908,-3.45885664065183,2463,-4.24086541420026,0.12272138623758,3,1,0,"zigzag_widening","zr9sdyq4d7",4.1,"preschool","yes","no",3.22021990474752,1.20758246428032,-38.8404294082047,22.9877927629476,-29.3565238686536,17.0146427597107,-1.11135026448239,-1.73634690935738
"290",364,24.8430238823309,-6.74935512904135,1.96467161997556,1496.99999999977,-2.22270052896478,-3.47269381871476,4,1,0,"zigzag_widening","zr9sdyq4d7",4.1,"preschool","yes","no",3.22021990474752,1.20758246428032,-38.8404294082047,22.9877927629476,-29.3565238686536,17.0146427597107,-4.24086541420026,0.12272138623758
"291",365,24.8430238823309,-1.27466150746464,-8.01257376514087,1078,-6.03857301667643,-0.886361056380159,5,1,0,"zigzag_widening","zr9sdyq4d7",4.1,"preschool","yes","no",3.22021990474752,1.20758246428032,-38.8404294082047,22.9877927629476,-29.3565238686536,17.0146427597107,-2.22270052896478,-3.47269381871476
"292",366,24.8430238823309,-8.74480420606464,1.19719120573584,120.000000000116,-3.33405079344717,-5.20904072807214,6,1,0,"zigzag_widening","zr9sdyq4d7",4.1,"preschool","yes","no",3.22021990474752,1.20758246428032,-38.8404294082047,22.9877927629476,-29.3565238686536,17.0146427597107,-6.03857301667643,-0.886361056380159
"293",367,24.8430238823309,-2.60496089214683,-7.70558159944498,1485.00000000012,-7.8362806191526,-1.8954434989979,7,1,0,"zigzag_widening","zr9sdyq4d7",4.1,"preschool","yes","no",3.22021990474752,1.20758246428032,-38.8404294082047,22.9877927629476,-29.3565238686536,17.0146427597107,-3.33405079344717,-5.20904072807214
"294",368,24.8430238823309,-9.71694606410162,-6.733439741408,1341.00000000012,-4.44540105792956,-6.94538763742952,8,1,0,"zigzag_widening","zr9sdyq4d7",4.1,"preschool","yes","no",3.22021990474752,1.20758246428032,-38.8404294082047,22.9877927629476,-29.3565238686536,17.0146427597107,-7.8362806191526,-1.8954434989979
"295",369,24.8430238823309,-1.27466150746464,-20.3434257539258,1069,-9.63398822162877,-2.90452594161564,9,1,0,"zigzag_widening","zr9sdyq4d7",4.1,"preschool","yes","no",3.22021990474752,1.20758246428032,-38.8404294082047,22.9877927629476,-29.3565238686536,17.0146427597107,-4.44540105792956,-6.94538763742952
"296",370,24.8430238823309,-13.6055134962496,-2.94720303115868,3184.99999999988,-5.55675132241195,-8.6817345467869,10,1,0,"zigzag_widening","zr9sdyq4d7",4.1,"preschool","yes","no",3.22021990474752,1.20758246428032,-38.8404294082047,22.9877927629476,-29.3565238686536,17.0146427597107,-9.63398822162877,-2.90452594161564
"297",371,24.8430238823309,-6.28886688049752,-10.6731725345053,6837.99999999977,-11.4316958241049,-3.91360838423338,11,1,0,"zigzag_widening","zr9sdyq4d7",4.1,"preschool","yes","no",3.22021990474752,1.20758246428032,-38.8404294082047,22.9877927629476,-29.3565238686536,17.0146427597107,-5.55675132241195,-8.6817345467869
"298",372,24.8430238823309,-12.1728833896687,-2.02622653407101,1685,-6.66810158689434,-10.4180814561443,12,1,0,"zigzag_widening","zr9sdyq4d7",4.1,"preschool","yes","no",3.22021990474752,1.20758246428032,-38.8404294082047,22.9877927629476,-29.3565238686536,17.0146427597107,-11.4316958241049,-3.91360838423338
"299",373,24.8430238823309,-7.77266234802765,-13.7942595524135,855,-13.2294034265811,-4.92269082685112,13,1,0,"zigzag_widening","zr9sdyq4d7",4.1,"preschool","yes","no",3.22021990474752,1.20758246428032,-38.8404294082047,22.9877927629476,-29.3565238686536,17.0146427597107,-6.66810158689434,-10.4180814561443
"300",374,24.8430238823309,-16.112616182766,-1.51457292457786,112,-7.77945185137673,-12.1544283655017,14,1,0,"zigzag_widening","zr9sdyq4d7",4.1,"preschool","yes","no",3.22021990474752,1.20758246428032,-38.8404294082047,22.9877927629476,-29.3565238686536,17.0146427597107,-13.2294034265811,-4.92269082685112
"301",375,126.048659197836,NA,NA,NA,0,0,0,2,NA,"zigzag_2","zr9sdyq4d7",4.1,"preschool","yes","no",NA,NA,NA,NA,NA,NA,NA,NA
"302",376,126.048659197836,NA,NA,NA,-0.172095102735381,0.985080339675145,1,2,NA,"zigzag_2","zr9sdyq4d7",4.1,"preschool","yes","no",0.634675533314782,0.238003324993043,-9.5400030242155,2.64576721542831,-2.44740448036998,6.69192319936287,0,0
"303",377,126.048659197836,NA,NA,NA,-0.344190205470762,1.97016067935029,2,2,NA,"zigzag_2","zr9sdyq4d7",4.1,"preschool","yes","no",0.634675533314782,0.238003324993043,-9.5400030242155,2.64576721542831,-2.44740448036998,6.69192319936287,-0.172095102735381,0.985080339675145
"304",378,126.048659197836,-0.361315377198128,2.67695443086719,2692,-0.516285308206144,2.95524101902543,3,2,1,"zigzag_2","zr9sdyq4d7",4.1,"preschool","yes","no",0.634675533314782,0.238003324993043,-9.5400030242155,2.64576721542831,-2.44740448036998,6.69192319936287,-0.344190205470762,1.97016067935029
"305",379,126.048659197836,-1.28906352520146,5.64171481687785,1322,-1.0911526822508,2.13699441667441,4,2,0,"zigzag_2","zr9sdyq4d7",4.1,"preschool","yes","no",0.634675533314782,0.238003324993043,-9.5400030242155,2.64576721542831,-2.44740448036998,6.69192319936287,-0.516285308206144,2.95524101902543
"306",380,126.048659197836,-0.794936794199687,3.30217600886944,588,-1.66602005629546,1.31874781432338,5,2,0,"zigzag_2","zr9sdyq4d7",4.1,"preschool","yes","no",0.634675533314782,0.238003324993043,-9.5400030242155,2.64576721542831,-2.44740448036998,6.69192319936287,-1.0911526822508,2.13699441667441
"307",381,126.048659197836,-1.95462197920386,0.92230032486088,1250,-2.24088743034012,0.500501211972356,6,2,1,"zigzag_2","zr9sdyq4d7",4.1,"preschool","yes","no",0.634675533314782,0.238003324993043,-9.5400030242155,2.64576721542831,-2.44740448036998,6.69192319936287,-1.66602005629546,1.31874781432338
"308",382,126.048659197836,-2.61009621420621,-0.0457846991426005,555,-2.4129825330755,1.4855815516475,7,2,0,"zigzag_2","zr9sdyq4d7",4.1,"preschool","yes","no",0.634675533314782,0.238003324993043,-9.5400030242155,2.64576721542831,-2.44740448036998,6.69192319936287,-2.24088743034012,0.500501211972356
"309",383,126.048659197836,-2.50925402420585,1.91055378686443,5039,-2.58507763581088,2.47066189132264,8,2,1,"zigzag_2","zr9sdyq4d7",4.1,"preschool","yes","no",0.634675533314782,0.238003324993043,-9.5400030242155,2.64576721542831,-2.44740448036998,6.69192319936287,-2.4129825330755,1.4855815516475
"310",384,126.048659197836,-2.8016963752069,2.85847037286784,5130,-2.75717273854626,3.45574223099779,9,2,1,"zigzag_2","zr9sdyq4d7",4.1,"preschool","yes","no",0.634675533314782,0.238003324993043,-9.5400030242155,2.64576721542831,-2.44740448036998,6.69192319936287,-2.58507763581088,2.47066189132264
"311",385,126.048659197836,-3.00338075520763,3.96773446287183,718,-3.33204011259092,2.63749562864676,10,2,0,"zigzag_2","zr9sdyq4d7",4.1,"preschool","yes","no",0.634675533314782,0.238003324993043,-9.5400030242155,2.64576721542831,-2.44740448036998,6.69192319936287,-2.75717273854626,3.45574223099779
"312",386,126.048659197836,-3.80003405621049,1.89038534886436,1799,-3.90690748663558,1.81924902629574,11,2,1,"zigzag_2","zr9sdyq4d7",4.1,"preschool","yes","no",0.634675533314782,0.238003324993043,-9.5400030242155,2.64576721542831,-2.44740448036998,6.69192319936287,-3.33204011259092,2.63749562864676
"313",387,126.048659197836,-4.45550829121285,1.32566908486233,6066,-4.48177486068024,1.00100242394471,12,2,1,"zigzag_2","zr9sdyq4d7",4.1,"preschool","yes","no",0.634675533314782,0.238003324993043,-9.5400030242155,2.64576721542831,-2.44740448036998,6.69192319936287,-3.90690748663558,1.81924902629574
"314",388,126.048659197836,-4.88912970821441,0.740784382860227,573,-4.65386996341562,1.98608276361986,13,2,0,"zigzag_2","zr9sdyq4d7",4.1,"preschool","yes","no",0.634675533314782,0.238003324993043,-9.5400030242155,2.64576721542831,-2.44740448036998,6.69192319936287,-4.48177486068024,1.00100242394471
"315",389,126.048659197836,-4.65719267121357,2.45510161286639,1001,-4.825965066151,2.971163103295,14,2,1,"zigzag_2","zr9sdyq4d7",4.1,"preschool","yes","no",0.634675533314782,0.238003324993043,-9.5400030242155,2.64576721542831,-2.44740448036998,6.69192319936287,-4.65386996341562,1.98608276361986
"316",390,149.185240297642,NA,NA,NA,0,0,0,3,NA,"plus","zr9sdyq4d7",4.1,"preschool","yes","no",NA,NA,NA,NA,NA,NA,NA,NA
"317",391,149.185240297642,NA,NA,NA,0.0355709503422215,-0.999367153498528,1,3,NA,"plus","zr9sdyq4d7",4.1,"preschool","yes","no",0.536246077965827,0.201092279237185,-5.00519561225786,5.29072908468601,-3.85589019701935,3.86605332568856,0,0
"318",392,149.185240297642,NA,NA,NA,0.071141900684443,-1.99873430699706,2,3,NA,"plus","zr9sdyq4d7",4.1,"preschool","yes","no",0.536246077965827,0.201092279237185,-5.00519561225786,5.29072908468601,-3.85589019701935,3.86605332568856,0.0355709503422215,-0.999367153498528
"319",393,149.185240297642,0.0490701151434862,-2.44871019600177,1748.00000000023,0,0,3,3,0,"plus","zr9sdyq4d7",4.1,"preschool","yes","no",0.536246077965827,0.201092279237185,-5.00519561225786,5.29072908468601,-3.85589019701935,3.86605332568856,0.071141900684443,-1.99873430699706
"320",394,149.185240297642,-0.0957749029366575,0.243703081252664,392,0.999367153498528,0.0355709503422214,4,3,0,"plus","zr9sdyq4d7",4.1,"preschool","yes","no",0.536246077965827,0.201092279237185,-5.00519561225786,5.29072908468601,-3.85589019701935,3.86605332568856,0,0
"321",395,149.185240297642,1.46343911522018,0.0732971776289659,4789,1.99873430699706,0.0711419006844429,5,3,1,"plus","zr9sdyq4d7",4.1,"preschool","yes","no",0.536246077965827,0.201092279237185,-5.00519561225786,5.29072908468601,-3.85589019701935,3.86605332568856,0.999367153498528,0.0355709503422214
"322",396,149.185240297642,2.71592250685437,0.380027804151624,2323,0,0,6,3,0,"plus","zr9sdyq4d7",4.1,"preschool","yes","no",0.536246077965827,0.201092279237185,-5.00519561225786,5.29072908468601,-3.85589019701935,3.86605332568856,1.99873430699706,0.0711419006844429
"323",397,149.185240297642,-0.112815493299028,0.303345147520959,657,-0.0355709503422214,0.999367153498528,7,3,0,"plus","zr9sdyq4d7",4.1,"preschool","yes","no",0.536246077965827,0.201092279237185,-5.00519561225786,5.29072908468601,-3.85589019701935,3.86605332568856,0,0
"324",398,149.185240297642,-0.249140216197986,1.51322706324922,1614,-0.0711419006844428,1.99873430699706,8,3,1,"plus","zr9sdyq4d7",4.1,"preschool","yes","no",0.536246077965827,0.201092279237185,-5.00519561225786,5.29072908468601,-3.85589019701935,3.86605332568856,-0.0355709503422214,0.999367153498528
"325",399,149.185240297642,-0.198018445110876,2.22893185846875,3011,0,0,9,3,0,"plus","zr9sdyq4d7",4.1,"preschool","yes","no",0.536246077965827,0.201092279237185,-5.00519561225786,5.29072908468601,-3.85589019701935,3.86605332568856,-0.0711419006844428,1.99873430699706
"326",400,149.185240297642,-0.257660511379171,0.175540719803185,647,-0.999367153498528,-0.0355709503422213,10,3,0,"plus","zr9sdyq4d7",4.1,"preschool","yes","no",0.536246077965827,0.201092279237185,-5.00519561225786,5.29072908468601,-3.85589019701935,3.86605332568856,0,0
"327",401,149.185240297642,-1.71463098736179,0.0818174728101506,3737,-1.99873430699706,-0.0711419006844426,11,3,1,"plus","zr9sdyq4d7",4.1,"preschool","yes","no",0.536246077965827,0.201092279237185,-5.00519561225786,5.29072908468601,-3.85589019701935,3.86605332568856,-0.999367153498528,-0.0355709503422213
"328",402,149.185240297642,-2.43033578258133,-0.216392858531322,4024.99999999977,0,0,12,3,0,"plus","zr9sdyq4d7",4.1,"preschool","yes","no",0.536246077965827,0.201092279237185,-5.00519561225786,5.29072908468601,-3.85589019701935,3.86605332568856,-1.99873430699706,-0.0711419006844426
"329",403,149.185240297642,-0.104295198117843,0.277784261977404,1321,0.0355709503422217,-0.999367153498528,13,3,0,"plus","zr9sdyq4d7",4.1,"preschool","yes","no",0.536246077965827,0.201092279237185,-5.00519561225786,5.29072908468601,-3.85589019701935,3.86605332568856,0,0
"330",404,149.185240297642,-0.334343168009836,-1.10250355737455,5739.99999999977,0.0711419006844434,-1.99873430699706,14,3,0,"plus","zr9sdyq4d7",4.1,"preschool","yes","no",0.536246077965827,0.201092279237185,-5.00519561225786,5.29072908468601,-3.85589019701935,3.86605332568856,0.0355709503422217,-0.999367153498528
"331",405,95.6309122915641,NA,NA,NA,1,1,0,4,NA,"spiral_outward","zr9sdyq4d7",4.1,"preschool","yes","no",NA,NA,NA,NA,NA,NA,NA,NA
"332",406,95.6309122915641,NA,NA,NA,1.75,1,1,4,NA,"spiral_outward","zr9sdyq4d7",4.1,"preschool","yes","no",0.836549585097465,0.313706094411549,-7.29707458568564,8.76467744818569,-3.92398432085344,8.12232970455005,1,1
"333",407,95.6309122915641,NA,NA,NA,2.45788987007808,1.51431209575591,2,4,NA,"spiral_outward","zr9sdyq4d7",4.1,"preschool","yes","no",0.836549585097465,0.313706094411549,-7.29707458568564,8.76467744818569,-3.92398432085344,8.12232970455005,1.75,1
"334",408,95.6309122915641,2.56810462030113,1.86000424542372,1600,2.76690686445303,2.46536861205107,3,4,1,"spiral_outward","zr9sdyq4d7",4.1,"preschool","yes","no",0.836549585097465,0.313706094411549,-7.29707458568564,8.76467744818569,-3.92398432085344,8.12232970455005,2.45788987007808,1.51431209575591
"335",409,95.6309122915641,3.23269217549276,3.14930410249548,448,2.41926274578121,3.53530719288312,4,4,0,"spiral_outward","zr9sdyq4d7",4.1,"preschool","yes","no",0.836549585097465,0.313706094411549,-7.29707458568564,8.76467744818569,-3.92398432085344,8.12232970455005,2.76690686445303,2.46536861205107
"336",410,95.6309122915641,2.66114687802795,4.0930184308676,1151,1.40799150281253,4.27003875824871,5,4,0,"spiral_outward","zr9sdyq4d7",4.1,"preschool","yes","no",0.836549585097465,0.313706094411549,-7.29707458568564,8.76467744818569,-3.92398432085344,8.12232970455005,2.41926274578121,3.53530719288312
"337",411,95.6309122915641,0.401549190376409,4.17276893749059,3553,0.0329915028125267,4.27003875824871,6,4,1,"spiral_outward","zr9sdyq4d7",4.1,"preschool","yes","no",0.836549585097465,0.313706094411549,-7.29707458568564,8.76467744818569,-3.92398432085344,8.12232970455005,1.40799150281253,4.27003875824871
"338",412,95.6309122915641,-0.316205369230552,4.17276893749059,5560,-1.18053398874989,3.38836087981,7,4,0,"spiral_outward","zr9sdyq4d7",4.1,"preschool","yes","no",0.836549585097465,0.313706094411549,-7.29707458568564,8.76467744818569,-3.92398432085344,8.12232970455005,0.0329915028125267,4.27003875824871
"339",413,95.6309122915641,-1.32637845312183,3.05626184476865,1504.99999999977,-1.68268660460918,1.84289404083037,8,4,0,"spiral_outward","zr9sdyq4d7",4.1,"preschool","yes","no",0.836549585097465,0.313706094411549,-7.29707458568564,8.76467744818569,-3.92398432085344,8.12232970455005,-1.18053398874989,3.38836087981
"340",414,95.6309122915641,-2.08400826604029,1.58087747224323,145.999999999767,-1.14190686445303,0.178545137313854,9,4,0,"spiral_outward","zr9sdyq4d7",4.1,"preschool","yes","no",0.836549585097465,0.313706094411549,-7.29707458568564,8.76467744818569,-3.92398432085344,8.12232970455005,-1.68268660460918,1.84289404083037
"341",415,95.6309122915641,-1.2732114487065,-0.213508926774169,6552,0.375,-0.923552210734534,10,4,0,"spiral_outward","zr9sdyq4d7",4.1,"preschool","yes","no",0.836549585097465,0.313706094411549,-7.29707458568564,8.76467744818569,-3.92398432085344,8.12232970455005,-1.14190686445303,0.178545137313854
"342",416,95.6309122915641,0.720551216868392,-3.403529191694,1222,2.375,-0.923552210734534,11,4,0,"spiral_outward","zr9sdyq4d7",4.1,"preschool","yes","no",0.836549585097465,0.313706094411549,-7.29707458568564,8.76467744818569,-3.92398432085344,8.12232970455005,0.375,-0.923552210734534
"343",417,95.6309122915641,2.63456337582029,-1.27684901508078,781,4.09416111304676,0.325491450386971,12,4,0,"spiral_outward","zr9sdyq4d7",4.1,"preschool","yes","no",0.836549585097465,0.313706094411549,-7.29707458568564,8.76467744818569,-3.92398432085344,8.12232970455005,2.375,-0.923552210734534
"344",418,95.6309122915641,4.14982300165721,1.06249917919376,291.000000000233,4.7894493503904,2.46536861205107,13,4,0,"spiral_outward","zr9sdyq4d7",4.1,"preschool","yes","no",0.836549585097465,0.313706094411549,-7.29707458568564,8.76467744818569,-3.92398432085344,8.12232970455005,4.09416111304676,0.325491450386971
"345",419,95.6309122915641,4.960619818991,3.10942884918398,619,4.0555339887499,4.72412783825206,14,4,0,"spiral_outward","zr9sdyq4d7",4.1,"preschool","yes","no",0.836549585097465,0.313706094411549,-7.29707458568564,8.76467744818569,-3.92398432085344,8.12232970455005,4.7894493503904,2.46536861205107
"346",420,298.181657880505,NA,NA,NA,0,0,0,5,NA,"hexagon","zr9sdyq4d7",4.1,"preschool","yes","no",NA,NA,NA,NA,NA,NA,NA,NA
"347",421,298.181657880505,NA,NA,NA,1,0,1,5,NA,"hexagon","zr9sdyq4d7",4.1,"preschool","yes","no",0.268292827159945,0.100609810184979,-2.02799209311642,3.12323018835452,-1.1481615616514,2.71525514945181,0,0
"348",422,298.181657880505,NA,NA,NA,1.5,0.866025403784439,2,5,NA,"hexagon","zr9sdyq4d7",4.1,"preschool","yes","no",0.268292827159945,0.100609810184979,-2.02799209311642,3.12323018835452,-1.1481615616514,2.71525514945181,1,0
"349",423,298.181657880505,1.46414411223828,1.03508131040637,82,1,1.73205080756888,3,5,0,"hexagon","zr9sdyq4d7",4.1,"preschool","yes","no",0.268292827159945,0.100609810184979,-2.02799209311642,3.12323018835452,-1.1481615616514,2.71525514945181,1.5,0.866025403784439
"350",424,298.181657880505,0.944076983523077,1.88765037387392,1410,2.22044604925031e-16,1.73205080756888,4,5,0,"hexagon","zr9sdyq4d7",4.1,"preschool","yes","no",0.268292827159945,0.100609810184979,-2.02799209311642,3.12323018835452,-1.1481615616514,2.71525514945181,1,1.73205080756888
"351",425,298.181657880505,-0.633175783891892,1.76402785967112,1352,-0.5,0.866025403784439,5,5,0,"hexagon","zr9sdyq4d7",4.1,"preschool","yes","no",0.268292827159945,0.100609810184979,-2.02799209311642,3.12323018835452,-1.1481615616514,2.71525514945181,2.22044604925031e-16,1.73205080756888
"352",426,298.181657880505,-0.739746916825336,0.817676199222142,295.000000000233,-8.88178419700125e-16,0,6,5,0,"hexagon","zr9sdyq4d7",4.1,"preschool","yes","no",0.268292827159945,0.100609810184979,-2.02799209311642,3.12323018835452,-1.1481615616514,2.71525514945181,-0.5,0.866025403784439
"353",427,298.181657880505,-0.249519705331494,-0.103098389322813,4403,0.999999999999999,-1.1331077795296e-15,7,5,0,"hexagon","zr9sdyq4d7",4.1,"preschool","yes","no",0.268292827159945,0.100609810184979,-2.02799209311642,3.12323018835452,-1.1481615616514,2.71525514945181,-8.88178419700125e-16,0
"354",428,298.181657880505,1.97568555031881,-0.324766345824376,2642,1.5,0.866025403784437,8,5,0,"hexagon","zr9sdyq4d7",4.1,"preschool","yes","no",0.268292827159945,0.100609810184979,-2.02799209311642,3.12323018835452,-1.1481615616514,2.71525514945181,0.999999999999999,-1.1331077795296e-15
"355",429,298.181657880505,1.61760654366244,0.796361972635453,2513.99999999977,1,1.73205080756888,9,5,0,"hexagon","zr9sdyq4d7",4.1,"preschool","yes","no",0.268292827159945,0.100609810184979,-2.02799209311642,3.12323018835452,-1.1481615616514,2.71525514945181,1.5,0.866025403784437
"356",430,298.181657880505,0.884397149080348,1.9302788270473,1524,1.33226762955019e-15,1.73205080756888,10,5,0,"hexagon","zr9sdyq4d7",4.1,"preschool","yes","no",0.268292827159945,0.100609810184979,-2.02799209311642,3.12323018835452,-1.1481615616514,2.71525514945181,1,1.73205080756888
"357",431,298.181657880505,-0.0832687379553221,1.93880451768197,1160,-0.499999999999999,0.866025403784438,11,5,0,"hexagon","zr9sdyq4d7",4.1,"preschool","yes","no",0.268292827159945,0.100609810184979,-2.02799209311642,3.12323018835452,-1.1481615616514,2.71525514945181,1.33226762955019e-15,1.73205080756888
"358",432,298.181657880505,-0.624650093257217,1.0947611448491,212.999999999767,2.16493489801906e-15,-6.66133814775094e-16,12,5,0,"hexagon","zr9sdyq4d7",4.1,"preschool","yes","no",0.268292827159945,0.100609810184979,-2.02799209311642,3.12323018835452,-1.1481615616514,2.71525514945181,-0.499999999999999,0.866025403784438
"359",433,298.181657880505,-0.138685727080713,-0.226720903525608,1171,1,6.20364304966215e-16,13,5,0,"hexagon","zr9sdyq4d7",4.1,"preschool","yes","no",0.268292827159945,0.100609810184979,-2.02799209311642,3.12323018835452,-1.1481615616514,2.71525514945181,2.16493489801906e-15,-6.66133814775094e-16
"360",434,298.181657880505,1.04212242582184,-0.103098389322813,7987,1.5,0.86602540378444,14,5,0,"hexagon","zr9sdyq4d7",4.1,"preschool","yes","no",0.268292827159945,0.100609810184979,-2.02799209311642,3.12323018835452,-1.1481615616514,2.71525514945181,1,6.20364304966215e-16
"361",450,89.0767281931597,NA,NA,NA,0,0,0,1,NA,"alternating_diff_1","s1p2pqghx5",6.7,"1st grade","yes","no",NA,NA,NA,NA,NA,NA,NA,NA
"362",451,89.0767281931597,NA,NA,NA,0,1,1,1,NA,"alternating_diff_1","s1p2pqghx5",6.7,"1st grade","yes","no",0.898102137592243,0.336788301597091,-3.85987575898078,13.3836852827903,-5.99014491447367,6.94252586685463,0,0
"363",452,89.0767281931597,NA,NA,NA,1,1,2,1,NA,"alternating_diff_1","s1p2pqghx5",6.7,"1st grade","yes","no",0.898102137592243,0.336788301597091,-3.85987575898078,13.3836852827903,-5.99014491447367,6.94252586685463,0,1
"364",453,89.0767281931597,1.40855904965058,1.00426026334874,1997,1,0,3,1,0,"alternating_diff_1","s1p2pqghx5",6.7,"1st grade","yes","no",0.898102137592243,0.336788301597091,-3.85987575898078,13.3836852827903,-5.99014491447367,6.94252586685463,1,1
"365",454,89.0767281931597,1.23732209789515,-0.265747128837315,2147,2,0,4,1,1,"alternating_diff_1","s1p2pqghx5",6.7,"1st grade","yes","no",0.898102137592243,0.336788301597091,-3.85987575898078,13.3836852827903,-5.99014491447367,6.94252586685463,1,0
"366",455,89.0767281931597,2.29328330038693,-0.22293789089846,709.999999999971,2,1,5,1,0,"alternating_diff_1","s1p2pqghx5",6.7,"1st grade","yes","no",0.898102137592243,0.336788301597091,-3.85987575898078,13.3836852827903,-5.99014491447367,6.94252586685463,2,0
"367",456,89.0767281931597,2.46452025214235,0.947181279430262,918,3,1,6,1,1,"alternating_diff_1","s1p2pqghx5",6.7,"1st grade","yes","no",0.898102137592243,0.336788301597091,-3.85987575898078,13.3836852827903,-5.99014491447367,6.94252586685463,2,1
"368",457,89.0767281931597,3.32070501091946,0.733135089735984,2971,3,0,7,1,1,"alternating_diff_1","s1p2pqghx5",6.7,"1st grade","yes","no",0.898102137592243,0.336788301597091,-3.85987575898078,13.3836852827903,-5.99014491447367,6.94252586685463,3,1
"369",458,89.0767281931597,3.26362602700099,-0.337095858735409,1283.99999999997,4,0,8,1,1,"alternating_diff_1","s1p2pqghx5",6.7,"1st grade","yes","no",0.898102137592243,0.336788301597091,-3.85987575898078,13.3836852827903,-5.99014491447367,6.94252586685463,3,0
"370",459,89.0767281931597,4.49082418124818,0.504819154062087,317,4,1,9,1,1,"alternating_diff_1","s1p2pqghx5",6.7,"1st grade","yes","no",0.898102137592243,0.336788301597091,-3.85987575898078,13.3836852827903,-5.99014491447367,6.94252586685463,4,0
"371",460,89.0767281931597,12.1251382803441,4.60023625021261,345,5,1,10,1,0,"alternating_diff_1","s1p2pqghx5",6.7,"1st grade","yes","no",0.898102137592243,0.336788301597091,-3.85987575898078,13.3836852827903,-5.99014491447367,6.94252586685463,4,1
"372",461,89.0767281931597,5.40408792394377,0.87583254953217,369,5,0,11,1,0,"alternating_diff_1","s1p2pqghx5",6.7,"1st grade","yes","no",0.898102137592243,0.336788301597091,-3.85987575898078,13.3836852827903,-5.99014491447367,6.94252586685463,5,1
"373",462,89.0767281931597,5.76083157343424,0.00537804477543702,771.999999999971,6,0,12,1,1,"alternating_diff_1","s1p2pqghx5",6.7,"1st grade","yes","no",0.898102137592243,0.336788301597091,-3.85987575898078,13.3836852827903,-5.99014491447367,6.94252586685463,5,0
"374",463,89.0767281931597,6.48858861839478,0.0909965206531487,618,6,1,13,1,0,"alternating_diff_1","s1p2pqghx5",6.7,"1st grade","yes","no",0.898102137592243,0.336788301597091,-3.85987575898078,13.3836852827903,-5.99014491447367,6.94252586685463,6,0
"375",464,89.0767281931597,6.36016090457822,1.06133924726721,1431,7,1,14,1,1,"alternating_diff_1","s1p2pqghx5",6.7,"1st grade","yes","no",0.898102137592243,0.336788301597091,-3.85987575898078,13.3836852827903,-5.99014491447367,6.94252586685463,6,1
