"response_x","response_y","rt","true_x","true_y","tpt","trial_idx","correct","seq_id","subject_id","acceptance_dist","prev_pt_buffer","min_x","max_x","min_y","max_y","prev_x","prev_y"
NA,NA,NA,0,0,0,0,NA,"hexagon","4lj0bpd5w5",NA,NA,NA,NA,NA,NA,NA,NA
NA,NA,NA,1,0,1,0,NA,"hexagon","4lj0bpd5w5",0.268292827159945,0.100609810184979,-2.02799209311642,3.12323018835452,-1.1481615616514,2.71525514945181,0,0
NA,NA,NA,1.5,0.866025403784439,2,0,NA,"hexagon","4lj0bpd5w5",0.268292827159945,0.100609810184979,-2.02799209311642,3.12323018835452,-1.1481615616514,2.71525514945181,1,0
0.956446212815154,1.70663549847457,1684.20000004768,1,1.73205080756888,3,0,1,"hexagon","4lj0bpd5w5",0.268292827159945,0.100609810184979,-2.02799209311642,3.12323018835452,-1.1481615616514,2.71525514945181,1.5,0.866025403784439
-0.050559646720518,1.67651139156539,4868,2.22044604925031e-16,1.73205080756888,4,0,1,"hexagon","4lj0bpd5w5",0.268292827159945,0.100609810184979,-2.02799209311642,3.12323018835452,-1.1481615616514,2.71525514945181,1,1.73205080756888
-0.40344204194242,0.88467772423819,227.099999964237,-0.5,0.866025403784439,5,0,1,"hexagon","4lj0bpd5w5",0.268292827159945,0.100609810184979,-2.02799209311642,3.12323018835452,-1.1481615616514,2.71525514945181,2.22044604925031e-16,1.73205080756888
0.00108167940951676,-0.00613515150490507,102.099999964237,-8.88178419700125e-16,0,6,0,1,"hexagon","4lj0bpd5w5",0.268292827159945,0.100609810184979,-2.02799209311642,3.12323018835452,-1.1481615616514,2.71525514945181,-0.5,0.866025403784439
1.00378409510102,0.00677518002760347,2546.10000002384,0.999999999999999,-1.1331077795296e-15,7,0,1,"hexagon","4lj0bpd5w5",0.268292827159945,0.100609810184979,-2.02799209311642,3.12323018835452,-1.1481615616514,2.71525514945181,-8.88178419700125e-16,0
1.45994914258299,0.845946729640664,109.299999952316,1.5,0.866025403784437,8,0,1,"hexagon","4lj0bpd5w5",0.268292827159945,0.100609810184979,-2.02799209311642,3.12323018835452,-1.1481615616514,2.71525514945181,0.999999999999999,-1.1331077795296e-15
0.986570319724341,1.71524238616291,711.300000011921,1,1.73205080756888,9,0,1,"hexagon","4lj0bpd5w5",0.268292827159945,0.100609810184979,-2.02799209311642,3.12323018835452,-1.1481615616514,2.71525514945181,1.5,0.866025403784437
-0.0204355398113312,1.69802861078623,115.699999988079,1.33226762955019e-15,1.73205080756888,10,0,1,"hexagon","4lj0bpd5w5",0.268292827159945,0.100609810184979,-2.02799209311642,3.12323018835452,-1.1481615616514,2.71525514945181,1,1.73205080756888
-0.528241913423337,0.850250173484834,111.399999976158,-0.499999999999999,0.866025403784438,11,0,1,"hexagon","4lj0bpd5w5",0.268292827159945,0.100609810184979,-2.02799209311642,3.12323018835452,-1.1481615616514,2.71525514945181,1.33226762955019e-15,1.73205080756888
-0.011828652122992,0.0153820677159426,694.300000011921,2.16493489801906e-15,-6.66133814775094e-16,12,0,1,"hexagon","4lj0bpd5w5",0.268292827159945,0.100609810184979,-2.02799209311642,3.12323018835452,-1.1481615616514,2.71525514945181,-0.499999999999999,0.866025403784438
0.986570319724341,-0.00183170766073548,565.599999964237,1,6.20364304966215e-16,13,0,1,"hexagon","4lj0bpd5w5",0.268292827159945,0.100609810184979,-2.02799209311642,3.12323018835452,-1.1481615616514,2.71525514945181,2.16493489801906e-15,-6.66133814775094e-16
1.47716291795967,0.858857061173173,137.900000035763,1.5,0.86602540378444,14,0,1,"hexagon","4lj0bpd5w5",0.268292827159945,0.100609810184979,-2.02799209311642,3.12323018835452,-1.1481615616514,2.71525514945181,1,6.20364304966215e-16
NA,NA,NA,0,0,0,1,NA,"3_pts","4lj0bpd5w5",NA,NA,NA,NA,NA,NA,NA,NA
NA,NA,NA,1,0,1,1,NA,"3_pts","4lj0bpd5w5",0.536513460860874,0.201192547822828,-4.1505292242644,6.15052922426439,-3.8628969181983,3.8628969181983,0,0
NA,NA,NA,2,0,2,1,NA,"3_pts","4lj0bpd5w5",0.536513460860874,0.201192547822828,-4.1505292242644,6.15052922426439,-3.8628969181983,3.8628969181983,1,0
2.97071210084636,0.00430286484900932,1421.40000003576,0,0,3,1,0,"3_pts","4lj0bpd5w5",0.536513460860874,0.201192547822828,-4.1505292242644,6.15052922426439,-3.8628969181983,3.8628969181983,2,0
1.08605729698019,-0.0301200539430666,4392.39999997616,1,0,4,1,1,"3_pts","4lj0bpd5w5",0.536513460860874,0.201192547822828,-4.1505292242644,6.15052922426439,-3.8628969181983,3.8628969181983,0,0
1.97244745587615,-0.0387257836410857,513.200000047684,2,0,5,1,1,"3_pts","4lj0bpd5w5",0.536513460860874,0.201192547822828,-4.1505292242644,6.15052922426439,-3.8628969181983,3.8628969181983,1,0
-0.049899023158325,-0.0559372430371239,2939.19999998808,0,0,6,1,1,"3_pts","4lj0bpd5w5",0.536513460860874,0.201192547822828,-4.1505292242644,6.15052922426439,-3.8628969181983,3.8628969181983,2,0
0.98278854060396,0.0473315133391048,212.800000011921,1,0,7,1,1,"3_pts","4lj0bpd5w5",0.536513460860874,0.201192547822828,-4.1505292242644,6.15052922426439,-3.8628969181983,3.8628969181983,0,0
2.01547610436624,-0.0215143242450475,548.800000011921,2,0,8,1,1,"3_pts","4lj0bpd5w5",0.536513460860874,0.201192547822828,-4.1505292242644,6.15052922426439,-3.8628969181983,3.8628969181983,1,0
-0.0154761043662486,-0.0989658915272189,755.100000023842,0,0,9,1,1,"3_pts","4lj0bpd5w5",0.536513460860874,0.201192547822828,-4.1505292242644,6.15052922426439,-3.8628969181983,3.8628969181983,2,0
0.991394270301979,-0.0215143242450475,212.600000023842,1,0,10,1,1,"3_pts","4lj0bpd5w5",0.536513460860874,0.201192547822828,-4.1505292242644,6.15052922426439,-3.8628969181983,3.8628969181983,0,0
1.98105318557417,-0.0129085945470284,181.200000047684,2,0,11,1,1,"3_pts","4lj0bpd5w5",0.536513460860874,0.201192547822828,-4.1505292242644,6.15052922426439,-3.8628969181983,3.8628969181983,1,0
0.0447640035198846,-0.00430286484900977,176.699999988079,0,0,12,1,1,"3_pts","4lj0bpd5w5",0.536513460860874,0.201192547822828,-4.1505292242644,6.15052922426439,-3.8628969181983,3.8628969181983,2,0
0.991394270301979,-0.0473315133391048,501.5,1,0,13,1,1,"3_pts","4lj0bpd5w5",0.536513460860874,0.201192547822828,-4.1505292242644,6.15052922426439,-3.8628969181983,3.8628969181983,0,0
1.97244745587615,-0.0129085945470284,103.100000023842,2,0,14,1,1,"3_pts","4lj0bpd5w5",0.536513460860874,0.201192547822828,-4.1505292242644,6.15052922426439,-3.8628969181983,3.8628969181983,1,0
NA,NA,NA,0,0,0,2,NA,"stairs_2","4lj0bpd5w5",NA,NA,NA,NA,NA,NA,NA,NA
NA,NA,NA,0.998106520400169,-0.0615091370014878,1,2,NA,"stairs_2","4lj0bpd5w5",1.3212520242296,0.495469509086099,-5.32821896779403,20.0398198974142,-3.95493941106251,15.0710897378437,0,0
NA,NA,NA,1.99621304080034,-0.123018274002975,2,2,NA,"stairs_2","4lj0bpd5w5",1.3212520242296,0.495469509086099,-5.32821896779403,20.0398198974142,-3.95493941106251,15.0710897378437,0.998106520400169,-0.0615091370014878
2.79930225593811,-0.301793463368038,1605.5,2.11923131480331,1.87319476679736,3,2,0,"stairs_2","4lj0bpd5w5",1.3212520242296,0.495469509086099,-5.32821896779403,20.0398198974142,-3.95493941106251,15.0710897378437,1.99621304080034,-0.123018274002975
1.06147503208926,2.02943817838043,1213.60000002384,3.11733783520348,1.81168562979587,4,2,0,"stairs_2","4lj0bpd5w5",1.3212520242296,0.495469509086099,-5.32821896779403,20.0398198974142,-3.95493941106251,15.0710897378437,2.11923131480331,1.87319476679736
4.34639234546209,1.73273596943062,987.100000023842,4.11544435560365,1.75017649279439,5,2,1,"stairs_2","4lj0bpd5w5",1.3212520242296,0.495469509086099,-5.32821896779403,20.0398198974142,-3.95493941106251,15.0710897378437,3.11733783520348,1.81168562979587
4.34639234546209,3.83084444700424,479.400000035763,4.23846262960663,3.74638953359472,6,2,1,"stairs_2","4lj0bpd5w5",1.3212520242296,0.495469509086099,-5.32821896779403,20.0398198974142,-3.95493941106251,15.0710897378437,4.11544435560365,1.75017649279439
5.7027453006612,3.91561650670418,163.300000011921,5.2365691500068,3.68488039659324,7,2,1,"stairs_2","4lj0bpd5w5",1.3212520242296,0.495469509086099,-5.32821896779403,20.0398198974142,-3.95493941106251,15.0710897378437,4.23846262960663,3.74638953359472
6.80478207676047,3.76726540222928,251.699999988079,6.23467567040696,3.62337125959175,8,2,1,"stairs_2","4lj0bpd5w5",1.3212520242296,0.495469509086099,-5.32821896779403,20.0398198974142,-3.95493941106251,15.0710897378437,5.2365691500068,3.68488039659324
6.52927288273565,6.28923417830262,403.800000011921,6.35769394440994,5.61958430039209,9,2,1,"stairs_2","4lj0bpd5w5",1.3212520242296,0.495469509086099,-5.32821896779403,20.0398198974142,-3.95493941106251,15.0710897378437,6.23467567040696,3.62337125959175
7.58892362898495,5.58986468577808,459.200000047684,7.35580046481011,5.5580751633906,10,2,1,"stairs_2","4lj0bpd5w5",1.3212520242296,0.495469509086099,-5.32821896779403,20.0398198974142,-3.95493941106251,15.0710897378437,6.35769394440994,5.61958430039209
8.79692547970916,5.58986468577808,17.1000000238419,8.35390698521027,5.49656602638911,11,2,1,"stairs_2","4lj0bpd5w5",1.3212520242296,0.495469509086099,-5.32821896779403,20.0398198974142,-3.95493941106251,15.0710897378437,7.35580046481011,5.5580751633906
8.4366442259844,7.53962205887679,820.899999976158,8.47692525921325,7.49277906718945,12,2,1,"stairs_2","4lj0bpd5w5",1.3212520242296,0.495469509086099,-5.32821896779403,20.0398198974142,-3.95493941106251,15.0710897378437,8.35390698521027,5.49656602638911
9.39032989760877,7.41246396932688,257.400000035763,9.47503177961342,7.43126993018796,13,2,1,"stairs_2","4lj0bpd5w5",1.3212520242296,0.495469509086099,-5.32821896779403,20.0398198974142,-3.95493941106251,15.0710897378437,8.47692525921325,7.49277906718945
10.555945718483,7.45484999917685,544.600000023842,10.4731383000136,7.36976079318647,14,2,1,"stairs_2","4lj0bpd5w5",1.3212520242296,0.495469509086099,-5.32821896779403,20.0398198974142,-3.95493941106251,15.0710897378437,9.47503177961342,7.43126993018796
NA,NA,NA,0,0,0,0,NA,"alternating_diff_2","p4j9zv8tlc",NA,NA,NA,NA,NA,NA,NA,NA
NA,NA,NA,1,0,1,0,NA,"alternating_diff_2","p4j9zv8tlc",1.79620427518449,0.673576603194183,-7.2435610417711,27.2435610417711,-13.4088612575188,12.4564803051378,0,0
NA,NA,NA,2,0,2,0,NA,"alternating_diff_2","p4j9zv8tlc",1.79620427518449,0.673576603194183,-7.2435610417711,27.2435610417711,-13.4088612575188,12.4564803051378,1,0
3.10086878284907,0.037004634297455,1956.29999999981,3,-2,3,0,0,"alternating_diff_2","p4j9zv8tlc",1.79620427518449,0.673576603194183,-7.2435610417711,27.2435610417711,-13.4088612575188,12.4564803051378,2,0
3.34726403469624,-0.00406124101040639,3977.80000000075,4,0,4,0,1,"alternating_diff_2","p4j9zv8tlc",1.79620427518449,0.673576603194183,-7.2435610417711,27.2435610417711,-13.4088612575188,12.4564803051378,3,-2
5.56482130132077,-0.127258866933991,12691.5999999996,5,0,5,0,1,"alternating_diff_2","p4j9zv8tlc",1.79620427518449,0.673576603194183,-7.2435610417711,27.2435610417711,-13.4088612575188,12.4564803051378,4,0
7.08425868771165,0.037004634297455,6980.79999999981,6,0,6,0,1,"alternating_diff_2","p4j9zv8tlc",1.79620427518449,0.673576603194183,-7.2435610417711,27.2435610417711,-13.4088612575188,12.4564803051378,5,0
5.72908480255221,1.35111264414903,11871.1999999993,7,-2,7,0,0,"alternating_diff_2","p4j9zv8tlc",1.79620427518449,0.673576603194183,-7.2435610417711,27.2435610417711,-13.4088612575188,12.4564803051378,6,0
7.53598331609812,-0.127258866933991,772.900000000373,8,0,8,0,1,"alternating_diff_2","p4j9zv8tlc",1.79620427518449,0.673576603194183,-7.2435610417711,27.2435610417711,-13.4088612575188,12.4564803051378,7,-2
9.71247470741479,0.037004634297455,109.700000000186,9,0,9,0,1,"alternating_diff_2","p4j9zv8tlc",1.79620427518449,0.673576603194183,-7.2435610417711,27.2435610417711,-13.4088612575188,12.4564803051378,8,0
12.012163724655,0.037004634297455,429,10,0,10,0,0,"alternating_diff_2","p4j9zv8tlc",1.79620427518449,0.673576603194183,-7.2435610417711,27.2435610417711,-13.4088612575188,12.4564803051378,9,0
10.7391215901113,-0.209390617549714,27.7000000001863,11,-2,11,0,0,"alternating_diff_2","p4j9zv8tlc",1.79620427518449,0.673576603194183,-7.2435610417711,27.2435610417711,-13.4088612575188,12.4564803051378,10,0
12.0942954752708,-0.127258866933991,1696.40000000037,12,0,12,0,1,"alternating_diff_2","p4j9zv8tlc",1.79620427518449,0.673576603194183,-7.2435610417711,27.2435610417711,-13.4088612575188,12.4564803051378,11,-2
14.106523365356,-2.05735500640349,893.400000000373,13,0,13,0,0,"alternating_diff_2","p4j9zv8tlc",1.79620427518449,0.673576603194183,-7.2435610417711,27.2435610417711,-13.4088612575188,12.4564803051378,12,0
13.203074108583,-1.64669625332487,124.399999999441,14,0,14,0,0,"alternating_diff_2","p4j9zv8tlc",1.79620427518449,0.673576603194183,-7.2435610417711,27.2435610417711,-13.4088612575188,12.4564803051378,13,0
NA,NA,NA,0,0,0,3,NA,"hourglass_1","4lj0bpd5w5",NA,NA,NA,NA,NA,NA,NA,NA
NA,NA,NA,1,0,1,3,NA,"hourglass_1","4lj0bpd5w5",0.377464158769053,0.141549059538395,-3.14746544799244,4.09984640037339,-2.24155146694671,3.19393241932766,0,0
NA,NA,NA,0,1,2,3,NA,"hourglass_1","4lj0bpd5w5",0.377464158769053,0.141549059538395,-3.14746544799244,4.09984640037339,-2.24155146694671,3.19393241932766,1,0
0.960555512004399,1.10889230422241,1391.80000001192,1,1,3,3,1,"hourglass_1","4lj0bpd5w5",0.377464158769053,0.141549059538395,-3.14746544799244,4.09984640037339,-2.24155146694671,3.19393241932766,0,1
-0.00817455962344704,0.0190709736410866,572,0,0,4,3,1,"hourglass_1","4lj0bpd5w5",0.377464158769053,0.141549059538395,-3.14746544799244,4.09984640037339,-2.24155146694671,3.19393241932766,1,1
0.966610074952073,0.0130164106934125,452.5,1,0,5,3,1,"hourglass_1","4lj0bpd5w5",0.377464158769053,0.141549059538395,-3.14746544799244,4.09984640037339,-2.24155146694671,3.19393241932766,0,0
0.00393456627190103,0.993855608216606,595.199999988079,0,1,6,3,1,"hourglass_1","4lj0bpd5w5",0.377464158769053,0.141549059538395,-3.14746544799244,4.09984640037339,-2.24155146694671,3.19393241932766,1,0
0.972664637899747,0.981746482321258,47.5999999642372,1,1,7,3,1,"hourglass_1","4lj0bpd5w5",0.377464158769053,0.141549059538395,-3.14746544799244,4.09984640037339,-2.24155146694671,3.19393241932766,0,1
0.0281528180625972,-0.0293655299403057,68.6000000238419,0,0,8,3,1,"hourglass_1","4lj0bpd5w5",0.377464158769053,0.141549059538395,-3.14746544799244,4.09984640037339,-2.24155146694671,3.19393241932766,1,1
1.00899201558579,-0.0172564040449577,118.599999964237,1,0,9,3,1,"hourglass_1","4lj0bpd5w5",0.377464158769053,0.141549059538395,-3.14746544799244,4.09984640037339,-2.24155146694671,3.19393241932766,0,0
0.00393456627190103,0.945419104635214,32.1999999880791,0,1,10,3,1,"hourglass_1","4lj0bpd5w5",0.377464158769053,0.141549059538395,-3.14746544799244,4.09984640037339,-2.24155146694671,3.19393241932766,1,0
1.05137395621951,0.945419104635214,1499.19999998808,1,1,11,3,1,"hourglass_1","4lj0bpd5w5",0.377464158769053,0.141549059538395,-3.14746544799244,4.09984640037339,-2.24155146694671,3.19393241932766,0,1
0.0402619439579452,-0.0172564040449577,602,0,0,12,3,1,"hourglass_1","4lj0bpd5w5",0.377464158769053,0.141549059538395,-3.14746544799244,4.09984640037339,-2.24155146694671,3.19393241932766,1,1
1.01504657853347,-0.00514727814960958,649.800000011921,1,0,13,3,1,"hourglass_1","4lj0bpd5w5",0.377464158769053,0.141549059538395,-3.14746544799244,4.09984640037339,-2.24155146694671,3.19393241932766,0,0
0.00998912921957507,0.99991017116428,603.700000047684,0,1,14,3,1,"hourglass_1","4lj0bpd5w5",0.377464158769053,0.141549059538395,-3.14746544799244,4.09984640037339,-2.24155146694671,3.19393241932766,1,0
NA,NA,NA,0,0,0,1,NA,"square_spiral","p4j9zv8tlc",NA,NA,NA,NA,NA,NA,NA,NA
NA,NA,NA,6.12323399573677e-17,1,1,1,NA,"square_spiral","p4j9zv8tlc",0.359240855036898,0.134715320638837,-4.59156935121136,2.30585506549708,-2.30081987055138,2.87224844197995,0,0
NA,NA,NA,-1,1,2,1,NA,"square_spiral","p4j9zv8tlc",0.359240855036898,0.134715320638837,-4.59156935121136,2.30585506549708,-2.30081987055138,2.87224844197995,6.12323399573677e-17,1
-1.04431187520431,0.0105472549795462,1144.09999999963,-2,1,3,1,0,"square_spiral","p4j9zv8tlc",0.359240855036898,0.134715320638837,-4.59156935121136,2.30585506549708,-2.30081987055138,2.87224844197995,-1,1
-2.81014451344236,0.955062387060364,226.5,-2,4.44089209850063e-16,4,1,0,"square_spiral","p4j9zv8tlc",0.359240855036898,0.134715320638837,-4.59156935121136,2.30585506549708,-2.30081987055138,2.87224844197995,-2,1
-1.35641252754406,0.0351867801642629,2394,-2,-1,5,1,0,"square_spiral","p4j9zv8tlc",0.359240855036898,0.134715320638837,-4.59156935121136,2.30585506549708,-2.30081987055138,2.87224844197995,-2,4.44089209850063e-16
-1.51246285371393,-1.05716550302486,676.299999999814,-1,-1,6,1,0,"square_spiral","p4j9zv8tlc",0.359240855036898,0.134715320638837,-4.59156935121136,2.30585506549708,-2.30081987055138,2.87224844197995,-2,-1
-0.600800421879403,-1.00788645265542,241.799999999814,0,-1,7,1,0,"square_spiral","p4j9zv8tlc",0.359240855036898,0.134715320638837,-4.59156935121136,2.30585506549708,-2.30081987055138,2.87224844197995,-1,-1
-0.0587308678156289,-0.5397354741458,73.0999999996275,1,-1,8,1,0,"square_spiral","p4j9zv8tlc",0.359240855036898,0.134715320638837,-4.59156935121136,2.30585506549708,-2.30081987055138,2.87224844197995,0,-1
1.02540824031192,-0.57258817439209,1276.5,1,-2.22044604925031e-16,9,1,0,"square_spiral","p4j9zv8tlc",0.359240855036898,0.134715320638837,-4.59156935121136,2.30585506549708,-2.30081987055138,2.87224844197995,1,-1
1.00898189018877,0.429419183119735,44.0999999996275,1,1,10,1,0,"square_spiral","p4j9zv8tlc",0.359240855036898,0.134715320638837,-4.59156935121136,2.30585506549708,-2.30081987055138,2.87224844197995,1,-2.22044604925031e-16
1.0007687151272,1.43142654063156,393.900000000372,1,2,11,1,0,"square_spiral","p4j9zv8tlc",0.359240855036898,0.134715320638837,-4.59156935121136,2.30585506549708,-2.30081987055138,2.87224844197995,1,1
0.384780585509278,2.05562784531106,1379.59999999963,6.66133814775094e-16,2,12,1,0,"square_spiral","p4j9zv8tlc",0.359240855036898,0.134715320638837,-4.59156935121136,2.30585506549708,-2.30081987055138,2.87224844197995,1,2
-0.584374071756257,2.01456197000319,309.200000000186,-0.999999999999999,2,13,1,0,"square_spiral","p4j9zv8tlc",0.359240855036898,0.134715320638837,-4.59156935121136,2.30585506549708,-2.30081987055138,2.87224844197995,6.66133814775094e-16,2
-1.39747840285192,1.95706974457219,1022.29999999981,-2,2,14,1,0,"square_spiral","p4j9zv8tlc",0.359240855036898,0.134715320638837,-4.59156935121136,2.30585506549708,-2.30081987055138,2.87224844197995,-0.999999999999999,2
NA,NA,NA,0,0,0,0,NA,"alternating_diff_1","lw2cc8c6k7",NA,NA,NA,NA,NA,NA,NA,NA
NA,NA,NA,0,1,1,0,NA,"alternating_diff_1","lw2cc8c6k7",0.898102137592243,0.336788301597091,-3.85987575898078,13.3836852827903,-5.99014491447367,6.94252586685463,0,0
NA,NA,NA,1,1,2,0,NA,"alternating_diff_1","lw2cc8c6k7",0.898102137592243,0.336788301597091,-3.85987575898078,13.3836852827903,-5.99014491447367,6.94252586685463,0,1
2.43397351702306,1.10709361602626,202.199999999255,1,0,3,0,0,"alternating_diff_1","lw2cc8c6k7",0.898102137592243,0.336788301597091,-3.85987575898078,13.3836852827903,-5.99014491447367,6.94252586685463,1,1
1.16879343667398,-1.05214705443617,166.800000000745,2,0,4,0,0,"alternating_diff_1","lw2cc8c6k7",0.898102137592243,0.336788301597091,-3.85987575898078,13.3836852827903,-5.99014491447367,6.94252586685463,1,0
3.26055783618446,0.179294890436931,410.599999999627,2,1,5,0,0,"alternating_diff_1","lw2cc8c6k7",0.898102137592243,0.336788301597091,-3.85987575898078,13.3836852827903,-5.99014491447367,6.94252586685463,2,0
3.56420105546824,1.1914389547162,1047.29999999888,3,1,6,0,1,"alternating_diff_1","lw2cc8c6k7",0.898102137592243,0.336788301597091,-3.85987575898078,13.3836852827903,-5.99014491447367,6.94252586685463,2,1
4.45826164558159,1.07335548055028,1724.20000000112,3,0,7,0,0,"alternating_diff_1","lw2cc8c6k7",0.898102137592243,0.336788301597091,-3.85987575898078,13.3836852827903,-5.99014491447367,6.94252586685463,3,1
4.25583283272574,0.11181861948498,1544.30000000075,4,0,8,0,1,"alternating_diff_1","lw2cc8c6k7",0.898102137592243,0.336788301597091,-3.85987575898078,13.3836852827903,-5.99014491447367,6.94252586685463,3,0
4.10401122308385,1.17456988697821,292.900000000373,4,1,9,0,1,"alternating_diff_1","lw2cc8c6k7",0.898102137592243,0.336788301597091,-3.85987575898078,13.3836852827903,-5.99014491447367,6.94252586685463,4,0
5.35232223569494,1.22517709019217,549.299999998882,5,1,10,0,1,"alternating_diff_1","lw2cc8c6k7",0.898102137592243,0.336788301597091,-3.85987575898078,13.3836852827903,-5.99014491447367,6.94252586685463,4,1
5.06554808414915,0.11181861948498,716.400000000373,5,0,11,0,1,"alternating_diff_1","lw2cc8c6k7",0.898102137592243,0.336788301597091,-3.85987575898078,13.3836852827903,-5.99014491447367,6.94252586685463,5,1
6.11143028390439,0.0780804840090052,600.60000000149,6,0,12,0,1,"alternating_diff_1","lw2cc8c6k7",0.898102137592243,0.336788301597091,-3.85987575898078,13.3836852827903,-5.99014491447367,6.94252586685463,5,0
6.16203748711835,1.05648641281229,56.5,6,1,13,0,1,"alternating_diff_1","lw2cc8c6k7",0.898102137592243,0.336788301597091,-3.85987575898078,13.3836852827903,-5.99014491447367,6.94252586685463,6,0
7.24165782234957,1.15770081924022,580.300000000745,7,1,14,0,1,"alternating_diff_1","lw2cc8c6k7",0.898102137592243,0.336788301597091,-3.85987575898078,13.3836852827903,-5.99014491447367,6.94252586685463,6,1
NA,NA,NA,0,0,0,4,NA,"triangle_1","4lj0bpd5w5",NA,NA,NA,NA,NA,NA,NA,NA
NA,NA,NA,1,0,1,4,NA,"triangle_1","4lj0bpd5w5",0.268256730430439,0.100596273911414,-2.07526461213221,3.07526461213221,-1.64277332450434,2.22012359369397,0,0
NA,NA,NA,0.5,0.866025403784439,2,4,NA,"triangle_1","4lj0bpd5w5",0.268256730430439,0.100596273911414,-2.07526461213221,3.07526461213221,-1.64277332450434,2.22012359369397,1,0
-0.0292523764281745,-0.00176824271333054,1208.39999997616,-2.22044604925031e-16,3.33066907387547e-16,3,4,1,"triangle_1","4lj0bpd5w5",0.268256730430439,0.100596273911414,-2.07526461213221,3.07526461213221,-1.64277332450434,2.22012359369397,0.5,0.866025403784439
1.00343518733412,-0.0146768372603592,948.100000023842,1,8.81375475580763e-17,4,4,1,"triangle_1","4lj0bpd5w5",0.268256730430439,0.100596273911414,-2.07526461213221,3.07526461213221,-1.64277332450434,2.22012359369397,-2.22044604925031e-16,3.33066907387547e-16
0.49139427030198,0.84159326769254,630.300000011921,0.500000000000001,0.866025403784439,5,4,1,"triangle_1","4lj0bpd5w5",0.268256730430439,0.100596273911414,-2.07526461213221,3.07526461213221,-1.64277332450434,2.22012359369397,1,8.81375475580763e-17
-0.0593724303712411,-0.0189797021093687,984.899999976158,-7.7715611723761e-16,1.4432899320127e-15,6,4,1,"triangle_1","4lj0bpd5w5",0.268256730430439,0.100596273911414,-2.07526461213221,3.07526461213221,-1.64277332450434,2.22012359369397,0.500000000000001,0.866025403784439
1.00343518733412,-0.00607110756234008,1741.19999998808,0.999999999999999,-8.22925627046488e-16,7,4,1,"triangle_1","4lj0bpd5w5",0.268256730430439,0.100596273911414,-2.07526461213221,3.07526461213221,-1.64277332450434,2.22012359369397,-7.7715611723761e-16,1.4432899320127e-15
0.482788540603961,0.820078943447492,1362.19999998808,0.500000000000002,0.866025403784439,8,4,1,"triangle_1","4lj0bpd5w5",0.268256730430439,0.100596273911414,-2.07526461213221,3.07526461213221,-1.64277332450434,2.22012359369397,0.999999999999999,-8.22925627046488e-16
-0.0249495115791647,-0.00607110756234008,885.300000011921,2.22044604925031e-16,1.66533453693773e-15,9,4,1,"triangle_1","4lj0bpd5w5",0.268256730430439,0.100596273911414,-2.07526461213221,3.07526461213221,-1.64277332450434,2.22012359369397,0.500000000000002,0.866025403784439
1.02494951157916,-0.00176824271333054,645.400000035763,1,9.30546457449323e-16,10,4,1,"triangle_1","4lj0bpd5w5",0.268256730430439,0.100596273911414,-2.07526461213221,3.07526461213221,-1.64277332450434,2.22012359369397,2.22044604925031e-16,1.66533453693773e-15
0.504302864849008,0.83298753799452,276.5,0.5,0.866025403784439,11,4,1,"triangle_1","4lj0bpd5w5",0.268256730430439,0.100596273911414,-2.07526461213221,3.07526461213221,-1.64277332450434,2.22012359369397,1,9.30546457449323e-16
-0.0421609709752029,-0.0189797021093687,1181.60000002384,1.16573417585641e-15,0,12,4,1,"triangle_1","4lj0bpd5w5",0.268256730430439,0.100596273911414,-2.07526461213221,3.07526461213221,-1.64277332450434,2.22012359369397,0.5,0.866025403784439
0.947497944296992,-0.0146768372603592,1541.19999998808,1,2.57299623948262e-15,13,4,1,"triangle_1","4lj0bpd5w5",0.268256730430439,0.100596273911414,-2.07526461213221,3.07526461213221,-1.64277332450434,2.22012359369397,1.16573417585641e-15,0
0.521514324245047,0.824381808296501,784.5,0.499999999999998,0.866025403784439,14,4,1,"triangle_1","4lj0bpd5w5",0.268256730430439,0.100596273911414,-2.07526461213221,3.07526461213221,-1.64277332450434,2.22012359369397,1,2.57299623948262e-15
NA,NA,NA,0,0,0,2,NA,"plus","p4j9zv8tlc",NA,NA,NA,NA,NA,NA,NA,NA
NA,NA,NA,0.0355709503422215,-0.999367153498528,1,2,NA,"plus","p4j9zv8tlc",0.536246077965827,0.201092279237185,-5.00519561225786,5.29072908468601,-3.85589019701935,3.86605332568856,0,0
NA,NA,NA,0.071141900684443,-1.99873430699706,2,2,NA,"plus","p4j9zv8tlc",0.536246077965827,0.201092279237185,-5.00519561225786,5.29072908468601,-3.85589019701935,3.86605332568856,0.0355709503422215,-0.999367153498528
0.130487607755776,-3.13963963062941,1774.80000000075,0,0,3,2,0,"plus","p4j9zv8tlc",0.536246077965827,0.201092279237185,-5.00519561225786,5.29072908468601,-3.85589019701935,3.86605332568856,0.071141900684443,-1.99873430699706
0.0446678019941578,1.56818971400794,960.099999999628,0.999367153498528,0.0355709503422214,4,2,0,"plus","p4j9zv8tlc",0.536246077965827,0.201092279237185,-5.00519561225786,5.29072908468601,-3.85589019701935,3.86605332568856,0,0
1.89592361199478,0.0724730993054461,59.4000000003725,1.99873430699706,0.0711419006844429,5,2,1,"plus","p4j9zv8tlc",0.536246077965827,0.201092279237185,-5.00519561225786,5.29072908468601,-3.85589019701935,3.86605332568856,0.999367153498528,0.0355709503422214
3.06062097590246,0.0724730993054461,394.200000000186,0,0,6,2,0,"plus","p4j9zv8tlc",0.536246077965827,0.201092279237185,-5.00519561225786,5.29072908468601,-3.85589019701935,3.86605332568856,1.99873430699706,0.0711419006844429
-0.838050200125346,-0.025606678707832,1254.59999999963,-0.0355709503422214,0.999367153498528,7,2,0,"plus","p4j9zv8tlc",0.536246077965827,0.201092279237185,-5.00519561225786,5.29072908468601,-3.85589019701935,3.86605332568856,0,0
-0.102451865025759,2.07084857632599,657.900000000373,-0.0711419006844428,1.99873430699706,8,2,1,"plus","p4j9zv8tlc",0.536246077965827,0.201092279237185,-5.00519561225786,5.29072908468601,-3.85589019701935,3.86605332568856,-0.0355709503422214,0.999367153498528
-0.0901918927740999,2.91678666169051,1964.09999999963,0,0,9,2,0,"plus","p4j9zv8tlc",0.536246077965827,0.201092279237185,-5.00519561225786,5.29072908468601,-3.85589019701935,3.86605332568856,-0.0711419006844428,1.99873430699706
-1.48782872946331,-0.111426484469451,125,-0.999367153498528,-0.0355709503422213,10,2,1,"plus","p4j9zv8tlc",0.536246077965827,0.201092279237185,-5.00519561225786,5.29072908468601,-3.85589019701935,3.86605332568856,0,0
-2.18664714780792,-0.0623865954628111,77.4000000003725,-1.99873430699706,-0.0711419006844426,11,2,1,"plus","p4j9zv8tlc",0.536246077965827,0.201092279237185,-5.00519561225786,5.29072908468601,-3.85589019701935,3.86605332568856,-0.999367153498528,-0.0355709503422213
-3.13066501118572,-0.14820640122443,2508.90000000037,0,0,12,2,0,"plus","p4j9zv8tlc",0.536246077965827,0.201092279237185,-5.00519561225786,5.29072908468601,-3.85589019701935,3.86605332568856,-1.99873430699706,-0.0711419006844426
0.547326664312209,-0.528265541025883,1905.19999999925,0.0355709503422217,-0.999367153498528,13,2,0,"plus","p4j9zv8tlc",0.536246077965827,0.201092279237185,-5.00519561225786,5.29072908468601,-3.85589019701935,3.86605332568856,0,0
0.0446678019941578,-2.09754198923833,397.600000000559,0.0711419006844434,-1.99873430699706,14,2,1,"plus","p4j9zv8tlc",0.536246077965827,0.201092279237185,-5.00519561225786,5.29072908468601,-3.85589019701935,3.86605332568856,0.0355709503422217,-0.999367153498528
NA,NA,NA,0,0,0,1,NA,"hourglass_1","lw2cc8c6k7",NA,NA,NA,NA,NA,NA,NA,NA
NA,NA,NA,1,0,1,1,NA,"hourglass_1","lw2cc8c6k7",0.377464158769053,0.141549059538395,-3.14746544799244,4.09984640037339,-2.24155146694671,3.19393241932766,0,0
NA,NA,NA,0,1,2,1,NA,"hourglass_1","lw2cc8c6k7",0.377464158769053,0.141549059538395,-3.14746544799244,4.09984640037339,-2.24155146694671,3.19393241932766,1,0
1.00793419841853,1.06039953417323,610.400000000373,1,1,3,1,1,"hourglass_1","lw2cc8c6k7",0.377464158769053,0.141549059538395,-3.14746544799244,4.09984640037339,-2.24155146694671,3.19393241932766,0,1
-0.00592374945499019,2.04589781916917,109.599999999627,0,0,4,1,0,"hourglass_1","lw2cc8c6k7",0.377464158769053,0.141549059538395,-3.14746544799244,4.09984640037339,-2.24155146694671,3.19393241932766,1,1
0.00825608198380046,0.946960882662908,509.799999998882,1,0,5,1,0,"hourglass_1","lw2cc8c6k7",0.377464158769053,0.141549059538395,-3.14746544799244,4.09984640037339,-2.24155146694671,3.19393241932766,0,0
0.0153459977031956,0.98950037697928,837.199999999255,0,1,6,1,1,"hourglass_1","lw2cc8c6k7",0.377464158769053,0.141549059538395,-3.14746544799244,4.09984640037339,-2.24155146694671,3.19393241932766,1,0
1.02920394557672,1.02494995557626,246.5,1,1,7,1,1,"hourglass_1","lw2cc8c6k7",0.377464158769053,0.141549059538395,-3.14746544799244,4.09984640037339,-2.24155146694671,3.19393241932766,0,1
0.0153459977031956,0.0394516705803167,6288.29999999888,0,0,8,1,1,"hourglass_1","lw2cc8c6k7",0.377464158769053,0.141549059538395,-3.14746544799244,4.09984640037339,-2.24155146694671,3.19393241932766,1,1
1.00793419841853,0.0110920077027359,388.299999998882,1,0,9,1,1,"hourglass_1","lw2cc8c6k7",0.377464158769053,0.141549059538395,-3.14746544799244,4.09984640037339,-2.24155146694671,3.19393241932766,0,0
0.0153459977031956,0.97532054554049,190.599999999627,0,1,10,1,1,"hourglass_1","lw2cc8c6k7",0.377464158769053,0.141549059538395,-3.14746544799244,4.09984640037339,-2.24155146694671,3.19393241932766,1,0
0.99375436697974,1.00368020841807,171.5,1,1,11,1,1,"hourglass_1","lw2cc8c6k7",0.377464158769053,0.141549059538395,-3.14746544799244,4.09984640037339,-2.24155146694671,3.19393241932766,0,1
-0.0201035808937804,-0.0101777394554499,1260.69999999925,0,0,12,1,1,"hourglass_1","lw2cc8c6k7",0.377464158769053,0.141549059538395,-3.14746544799244,4.09984640037339,-2.24155146694671,3.19393241932766,1,1
1.01502411413793,-0.0314474866136356,71.2999999988824,1,0,13,1,1,"hourglass_1","lw2cc8c6k7",0.377464158769053,0.141549059538395,-3.14746544799244,4.09984640037339,-2.24155146694671,3.19393241932766,0,0
0.0224359134225911,1.01077012413747,149.799999998882,0,1,14,1,1,"hourglass_1","lw2cc8c6k7",0.377464158769053,0.141549059538395,-3.14746544799244,4.09984640037339,-2.24155146694671,3.19393241932766,1,0
NA,NA,NA,0,0,0,5,NA,"alternating_diff_2","4lj0bpd5w5",NA,NA,NA,NA,NA,NA,NA,NA
NA,NA,NA,1,0,1,5,NA,"alternating_diff_2","4lj0bpd5w5",1.79620427518449,0.673576603194183,-7.2435610417711,27.2435610417711,-13.4088612575188,12.4564803051378,0,0
NA,NA,NA,2,0,2,5,NA,"alternating_diff_2","4lj0bpd5w5",1.79620427518449,0.673576603194183,-7.2435610417711,27.2435610417711,-13.4088612575188,12.4564803051378,1,0
2.941232322082,-0.144860564778,927,3,-2,3,5,0,"alternating_diff_2","4lj0bpd5w5",1.79620427518449,0.673576603194183,-7.2435610417711,27.2435610417711,-13.4088612575188,12.4564803051378,2,0
4.12249548450909,-2.24808521983111,1005.39999997616,4,0,4,5,0,"alternating_diff_2","4lj0bpd5w5",1.79620427518449,0.673576603194183,-7.2435610417711,27.2435610417711,-13.4088612575188,12.4564803051378,3,-2
5.2173247570025,-0.144860564778,470.800000011921,5,0,5,5,1,"alternating_diff_2","4lj0bpd5w5",1.79620427518449,0.673576603194183,-7.2435610417711,27.2435610417711,-13.4088612575188,12.4564803051378,4,0
6.45621051271871,-0.000804081555182634,27.6000000238419,6,0,6,5,1,"alternating_diff_2","4lj0bpd5w5",1.79620427518449,0.673576603194183,-7.2435610417711,27.2435610417711,-13.4088612575188,12.4564803051378,5,0
6.97481385232085,-2.13284003325286,219.399999976158,7,-2,7,5,1,"alternating_diff_2","4lj0bpd5w5",1.79620427518449,0.673576603194183,-7.2435610417711,27.2435610417711,-13.4088612575188,12.4564803051378,6,0
7.78153015836862,-0.202483158067126,563,8,0,8,5,1,"alternating_diff_2","4lj0bpd5w5",1.79620427518449,0.673576603194183,-7.2435610417711,27.2435610417711,-13.4088612575188,12.4564803051378,7,-2
8.96279332079571,-0.288917048000815,1179.5,9,0,9,5,1,"alternating_diff_2","4lj0bpd5w5",1.79620427518449,0.673576603194183,-7.2435610417711,27.2435610417711,-13.4088612575188,12.4564803051378,8,0
10.2016790765119,-0.202483158067126,368.699999988079,10,0,10,5,1,"alternating_diff_2","4lj0bpd5w5",1.79620427518449,0.673576603194183,-7.2435610417711,27.2435610417711,-13.4088612575188,12.4564803051378,9,0
11.0660179758488,-2.01759484667461,832.800000011921,11,-2,11,5,1,"alternating_diff_2","4lj0bpd5w5",1.79620427518449,0.673576603194183,-7.2435610417711,27.2435610417711,-13.4088612575188,12.4564803051378,10,0
12.0744133584085,-0.0584266748443092,277.5,12,0,12,5,1,"alternating_diff_2","4lj0bpd5w5",1.79620427518449,0.673576603194183,-7.2435610417711,27.2435610417711,-13.4088612575188,12.4564803051378,11,-2
12.9963748510346,-0.0872379714888734,463.299999952316,13,0,13,5,1,"alternating_diff_2","4lj0bpd5w5",1.79620427518449,0.673576603194183,-7.2435610417711,27.2435610417711,-13.4088612575188,12.4564803051378,12,0
14.091204123528,-0.202483158067126,610.899999976158,14,0,14,5,1,"alternating_diff_2","4lj0bpd5w5",1.79620427518449,0.673576603194183,-7.2435610417711,27.2435610417711,-13.4088612575188,12.4564803051378,13,0
NA,NA,NA,0,0,0,3,NA,"stairs_2","p4j9zv8tlc",NA,NA,NA,NA,NA,NA,NA,NA
NA,NA,NA,0.998106520400169,-0.0615091370014878,1,3,NA,"stairs_2","p4j9zv8tlc",1.3212520242296,0.495469509086099,-5.32821896779403,20.0398198974142,-3.95493941106251,15.0710897378437,0,0
NA,NA,NA,1.99621304080034,-0.123018274002975,2,3,NA,"stairs_2","p4j9zv8tlc",1.3212520242296,0.495469509086099,-5.32821896779403,20.0398198974142,-3.95493941106251,15.0710897378437,0.998106520400169,-0.0615091370014878
1.85803586487127,1.52531443032706,1760.59999999963,2.11923131480331,1.87319476679736,3,3,1,"stairs_2","p4j9zv8tlc",1.3212520242296,0.495469509086099,-5.32821896779403,20.0398198974142,-3.95493941106251,15.0710897378437,1.99621304080034,-0.123018274002975
3.24756883438732,1.7065578611335,1197.29999999981,3.11733783520348,1.81168562979587,4,3,1,"stairs_2","p4j9zv8tlc",1.3212520242296,0.495469509086099,-5.32821896779403,20.0398198974142,-3.95493941106251,15.0710897378437,2.11923131480331,1.87319476679736
4.66730904237112,1.73676509960124,724.5,4.11544435560365,1.75017649279439,5,3,1,"stairs_2","p4j9zv8tlc",1.3212520242296,0.495469509086099,-5.32821896779403,20.0398198974142,-3.95493941106251,15.0710897378437,3.11733783520348,1.81168562979587
4.03295703454857,3.33774873839148,361.299999999814,4.23846262960663,3.74638953359472,6,3,1,"stairs_2","p4j9zv8tlc",1.3212520242296,0.495469509086099,-5.32821896779403,20.0398198974142,-3.95493941106251,15.0710897378437,4.11544435560365,1.75017649279439
4.27461494229049,5.4522554311333,125.899999999441,5.2365691500068,3.68488039659324,7,3,0,"stairs_2","p4j9zv8tlc",1.3212520242296,0.495469509086099,-5.32821896779403,20.0398198974142,-3.95493941106251,15.0710897378437,4.23846262960663,3.74638953359472
6.54015782737101,3.70023560000436,773.599999999627,6.23467567040696,3.62337125959175,8,3,1,"stairs_2","p4j9zv8tlc",1.3212520242296,0.495469509086099,-5.32821896779403,20.0398198974142,-3.95493941106251,15.0710897378437,5.2365691500068,3.68488039659324
6.05684201188717,4.57624551556883,559.700000000186,6.35769394440994,5.61958430039209,9,3,1,"stairs_2","p4j9zv8tlc",1.3212520242296,0.495469509086099,-5.32821896779403,20.0398198974142,-3.95493941106251,15.0710897378437,6.23467567040696,3.62337125959175
6.26829268116135,7.65738383927834,594.400000000373,7.35580046481011,5.5580751633906,10,3,0,"stairs_2","p4j9zv8tlc",1.3212520242296,0.495469509086099,-5.32821896779403,20.0398198974142,-3.95493941106251,15.0710897378437,6.35769394440994,5.61958430039209
9.01715138172572,5.54287714653652,761.799999999814,8.35390698521027,5.49656602638911,11,3,1,"stairs_2","p4j9zv8tlc",1.3212520242296,0.495469509086099,-5.32821896779403,20.0398198974142,-3.95493941106251,15.0710897378437,7.35580046481011,5.5580751633906
8.47342108930639,7.02303183145579,993.700000000186,8.47692525921325,7.49277906718945,12,3,1,"stairs_2","p4j9zv8tlc",1.3212520242296,0.495469509086099,-5.32821896779403,20.0398198974142,-3.95493941106251,15.0710897378437,8.35390698521027,5.49656602638911
10.2254409204353,7.32510421613319,189.200000000186,9.47503177961342,7.43126993018796,13,3,1,"stairs_2","p4j9zv8tlc",1.3212520242296,0.495469509086099,-5.32821896779403,20.0398198974142,-3.95493941106251,15.0710897378437,8.47692525921325,7.49277906718945
10.8597929282579,7.38551869306867,247.900000000373,10.4731383000136,7.36976079318647,14,3,1,"stairs_2","p4j9zv8tlc",1.3212520242296,0.495469509086099,-5.32821896779403,20.0398198974142,-3.95493941106251,15.0710897378437,9.47503177961342,7.43126993018796
NA,NA,NA,0,0,0,2,NA,"zigzag_1","lw2cc8c6k7",NA,NA,NA,NA,NA,NA,NA,NA
NA,NA,NA,-0.459088015321693,-0.888390789117035,1,2,NA,"zigzag_1","lw2cc8c6k7",0.68493841956189,0.256851907335709,-10.4627229945855,2.68809466100275,-5.48621651306949,4.37689672862173,0,0
NA,NA,NA,-0.918176030643386,-1.77678157823407,2,2,NA,"zigzag_1","lw2cc8c6k7",0.68493841956189,0.256851907335709,-10.4627229945855,2.68809466100275,-5.48621651306949,4.37689672862173,-0.459088015321693,-0.888390789117035
-1.53298065941625,-2.89098202217711,1648.20000000112,-1.22173893317627,-0.823970178110304,3,2,0,"zigzag_1","lw2cc8c6k7",0.68493841956189,0.256851907335709,-10.4627229945855,2.68809466100275,-5.48621651306949,4.37689672862173,-0.918176030643386,-1.77678157823407
-1.40432855947897,0.466837786185779,2823.69999999925,-1.52530183570915,0.128841222013462,4,2,1,"zigzag_1","lw2cc8c6k7",0.68493841956189,0.256851907335709,-10.4627229945855,2.68809466100275,-5.48621651306949,4.37689672862173,-1.22173893317627,-0.823970178110304
0.036574959818509,0.0808814863739524,198.400000000373,-1.98438985103084,-0.759549567103573,5,2,0,"zigzag_1","lw2cc8c6k7",0.68493841956189,0.256851907335709,-10.4627229945855,2.68809466100275,-5.48621651306949,4.37689672862173,-1.52530183570915,0.128841222013462
-2.45927577896463,0.260994426286138,701.39999999851,-2.44347786635253,-1.64794035622061,6,2,0,"zigzag_1","lw2cc8c6k7",0.68493841956189,0.256851907335709,-10.4627229945855,2.68809466100275,-5.48621651306949,4.37689672862173,-1.98438985103084,-0.759549567103573
-3.2826492185632,0.14520753634259,416.400000000372,-2.74704076888542,-0.695128956096842,7,2,0,"zigzag_1","lw2cc8c6k7",0.68493841956189,0.256851907335709,-10.4627229945855,2.68809466100275,-5.48621651306949,4.37689672862173,-2.44347786635253,-1.64794035622061
-3.1925927486071,0.312455266261048,573.5,-3.0506036714183,0.257682444026925,8,2,1,"zigzag_1","lw2cc8c6k7",0.68493841956189,0.256851907335709,-10.4627229945855,2.68809466100275,-5.48621651306949,4.37689672862173,-2.74704076888542,-0.695128956096842
-4.11888786815549,-1.4372132928859,453.300000000745,-3.50969168673999,-0.63070834509011,9,2,0,"zigzag_1","lw2cc8c6k7",0.68493841956189,0.256851907335709,-10.4627229945855,2.68809466100275,-5.48621651306949,4.37689672862173,-3.0506036714183,0.257682444026925
-4.10602265816176,-1.4372132928859,518.200000001118,-3.96877970206168,-1.51909913420715,10,2,1,"zigzag_1","lw2cc8c6k7",0.68493841956189,0.256851907335709,-10.4627229945855,2.68809466100275,-5.48621651306949,4.37689672862173,-3.50969168673999,-0.63070834509011
-4.4533833279924,-0.343670443419057,470.800000000745,-4.27234260459456,-0.566287734083379,11,2,1,"zigzag_1","lw2cc8c6k7",0.68493841956189,0.256851907335709,-10.4627229945855,2.68809466100275,-5.48621651306949,4.37689672862173,-3.96877970206168,-1.51909913420715
-4.5949006379234,0.479702996179506,561.799999998882,-4.57590550712744,0.386523666040387,12,2,1,"zigzag_1","lw2cc8c6k7",0.68493841956189,0.256851907335709,-10.4627229945855,2.68809466100275,-5.48621651306949,4.37689672862173,-4.27234260459456,-0.566287734083379
-5.14810466765369,-0.549513803318697,1312.29999999888,-5.03499352244914,-0.501867123076648,13,2,1,"zigzag_1","lw2cc8c6k7",0.68493841956189,0.256851907335709,-10.4627229945855,2.68809466100275,-5.48621651306949,4.37689672862173,-4.57590550712744,0.386523666040387
-5.55979138745297,-1.52726976284199,626.099999999627,-5.49408153777083,-1.39025791219368,14,2,1,"zigzag_1","lw2cc8c6k7",0.68493841956189,0.256851907335709,-10.4627229945855,2.68809466100275,-5.48621651306949,4.37689672862173,-5.03499352244914,-0.501867123076648
NA,NA,NA,0,0,0,0,NA,"plus","2erutzn4hb",NA,NA,NA,NA,NA,NA,NA,NA
NA,NA,NA,0.0355709503422215,-0.999367153498528,1,0,NA,"plus","2erutzn4hb",0.536246077965827,0.201092279237185,-5.00519561225786,5.29072908468601,-3.85589019701935,3.86605332568856,0,0
NA,NA,NA,0.071141900684443,-1.99873430699706,2,0,NA,"plus","2erutzn4hb",0.536246077965827,0.201092279237185,-5.00519561225786,5.29072908468601,-3.85589019701935,3.86605332568856,0.0355709503422215,-0.999367153498528
0.096288845968882,-2.97766157113913,1570.29999999702,0,0,3,0,0,"plus","2erutzn4hb",0.536246077965827,0.201092279237185,-5.00519561225786,5.29072908468601,-3.85589019701935,3.86605332568856,0.071141900684443,-1.99873430699706
-0.124653744094291,1.18536196794593,7942,0.999367153498528,0.0355709503422214,4,0,0,"plus","2erutzn4hb",0.536246077965827,0.201092279237185,-5.00519561225786,5.29072908468601,-3.85589019701935,3.86605332568856,0,0
2.31734330397236,0.092277575001805,2181.40000000596,1.99873430699706,0.0711419006844429,5,0,1,"plus","2erutzn4hb",0.536246077965827,0.201092279237185,-5.00519561225786,5.29072908468601,-3.85589019701935,3.86605332568856,0.999367153498528,0.0355709503422214
1.94522946807649,1.15047629583069,4190.69999998808,0,0,6,0,0,"plus","2erutzn4hb",0.536246077965827,0.201092279237185,-5.00519561225786,5.29072908468601,-3.85589019701935,3.86605332568856,1.99873430699706,0.0711419006844429
-0.101396629350799,1.13884773845894,2016.90000000596,-0.0355709503422214,0.999367153498528,7,0,1,"plus","2erutzn4hb",0.536246077965827,0.201092279237185,-5.00519561225786,5.29072908468601,-3.85589019701935,3.86605332568856,0,0
-0.113025186722545,2.12727511505735,1612.30000001192,-0.0711419006844428,1.99873430699706,8,0,1,"plus","2erutzn4hb",0.536246077965827,0.201092279237185,-5.00519561225786,5.29072908468601,-3.85589019701935,3.86605332568856,-0.0355709503422214,0.999367153498528
-0.0199967277485777,0.0108776733995835,918.90000000596,0,0,9,0,1,"plus","2erutzn4hb",0.536246077965827,0.201092279237185,-5.00519561225786,5.29072908468601,-3.85589019701935,3.86605332568856,-0.0711419006844428,1.99873430699706
-1.07819544857746,-0.000750883972162608,781,-0.999367153498528,-0.0355709503422213,10,0,1,"plus","2erutzn4hb",0.536246077965827,0.201092279237185,-5.00519561225786,5.29072908468601,-3.85589019701935,3.86605332568856,0,0
-2.43873666107174,-0.0821507855743842,564.59999999404,-1.99873430699706,-0.0711419006844426,11,0,1,"plus","2erutzn4hb",0.536246077965827,0.201092279237185,-5.00519561225786,5.29072908468601,-3.85589019701935,3.86605332568856,-0.999367153498528,-0.0355709503422213
0.0148889443666604,0.0341347881430756,382.5,0,0,12,0,1,"plus","2erutzn4hb",0.536246077965827,0.201092279237185,-5.00519561225786,5.29072908468601,-3.85589019701935,3.86605332568856,-1.99873430699706,-0.0711419006844426
0.782373730901893,-0.838007014737872,946.29999999702,0.0355709503422217,-0.999367153498528,13,0,0,"plus","2erutzn4hb",0.536246077965827,0.201092279237185,-5.00519561225786,5.29072908468601,-3.85589019701935,3.86605332568856,0,0
0.0614031738536447,-2.00086275191247,360.70000000298,0.0711419006844434,-1.99873430699706,14,0,1,"plus","2erutzn4hb",0.536246077965827,0.201092279237185,-5.00519561225786,5.29072908468601,-3.85589019701935,3.86605332568856,0.0355709503422217,-0.999367153498528
NA,NA,NA,0,0,0,6,NA,"square_spiral","4lj0bpd5w5",NA,NA,NA,NA,NA,NA,NA,NA
NA,NA,NA,6.12323399573677e-17,1,1,6,NA,"square_spiral","4lj0bpd5w5",0.359240855036898,0.134715320638837,-4.59156935121136,2.30585506549708,-2.30081987055138,2.87224844197995,0,0
NA,NA,NA,-1,1,2,6,NA,"square_spiral","4lj0bpd5w5",0.359240855036898,0.134715320638837,-4.59156935121136,2.30585506549708,-2.30081987055138,2.87224844197995,6.12323399573677e-17,1
-1.0794722902391,0.0753918202089747,496,-2,1,3,6,0,"square_spiral","4lj0bpd5w5",0.359240855036898,0.134715320638837,-4.59156935121136,2.30585506549708,-2.30081987055138,2.87224844197995,-1,1
-2.09362993212773,0.104203116853538,1000.59999996424,-2,4.44089209850063e-16,4,6,1,"square_spiral","4lj0bpd5w5",0.359240855036898,0.134715320638837,-4.59156935121136,2.30585506549708,-2.30081987055138,2.87224844197995,-2,1
-0.975751622318676,-0.0513778850271036,217.300000011921,-2,-1,5,6,0,"square_spiral","4lj0bpd5w5",0.359240855036898,0.134715320638837,-4.59156935121136,2.30585506549708,-2.30081987055138,2.87224844197995,-2,4.44089209850063e-16
-1.03913647493671,-1.04824874892899,561.099999964237,-1,-1,6,6,1,"square_spiral","4lj0bpd5w5",0.359240855036898,0.134715320638837,-4.59156935121136,2.30585506549708,-2.30081987055138,2.87224844197995,-2,-1
0.0499305382277759,-1.03672423027117,79.5999999642372,0,-1,7,6,1,"square_spiral","4lj0bpd5w5",0.359240855036898,0.134715320638837,-4.59156935121136,2.30585506549708,-2.30081987055138,2.87224844197995,-1,-1
-0.0480278703637387,-0.0571401443560164,84.1000000238419,1,-1,8,6,0,"square_spiral","4lj0bpd5w5",0.359240855036898,0.134715320638837,-4.59156935121136,2.30585506549708,-2.30081987055138,2.87224844197995,0,-1
0.94884299353815,-0.0513778850271036,1857.39999997616,1,-2.22044604925031e-16,9,6,1,"square_spiral","4lj0bpd5w5",0.359240855036898,0.134715320638837,-4.59156935121136,2.30585506549708,-2.30081987055138,2.87224844197995,1,-1
0.0384060195699512,-0.0110420697247151,102.400000035763,1,1,10,6,0,"square_spiral","4lj0bpd5w5",0.359240855036898,0.134715320638837,-4.59156935121136,2.30585506549708,-2.30081987055138,2.87224844197995,1,-2.22044604925031e-16
0.989178808840538,1.80406961888277,1727,1,2,11,6,1,"square_spiral","4lj0bpd5w5",0.359240855036898,0.134715320638837,-4.59156935121136,2.30585506549708,-2.30081987055138,2.87224844197995,1,1
0.10179087218799,1.79254510022494,660.399999976158,6.66133814775094e-16,2,12,6,1,"square_spiral","4lj0bpd5w5",0.359240855036898,0.134715320638837,-4.59156935121136,2.30585506549708,-2.30081987055138,2.87224844197995,1,2
-1.01608743762106,1.97117513942124,104.400000035763,-0.999999999999999,2,13,6,1,"square_spiral","4lj0bpd5w5",0.359240855036898,0.134715320638837,-4.59156935121136,2.30585506549708,-2.30081987055138,2.87224844197995,6.66133814775094e-16,2
-2.0821054134699,1.94236384277667,1120.30000001192,-2,2,14,6,1,"square_spiral","4lj0bpd5w5",0.359240855036898,0.134715320638837,-4.59156935121136,2.30585506549708,-2.30081987055138,2.87224844197995,-0.999999999999999,2
NA,NA,NA,1,0,0,4,NA,"f_curly_2","p4j9zv8tlc",NA,NA,NA,NA,NA,NA,NA,NA
NA,NA,NA,0.0653223623952687,0.698984619355586,1,4,NA,"f_curly_2","p4j9zv8tlc",0.577601305251165,0.216600489469187,-8.00193064596212,3.08801441486025,-6.6615903161942,1.65586847942257,1,0
NA,NA,NA,-1.30114361554693,0.0984721441039566,2,4,NA,"f_curly_2","p4j9zv8tlc",0.577601305251165,0.216600489469187,-8.00193064596212,3.08801441486025,-6.6615903161942,1.65586847942257,0.0653223623952687,0.698984619355586
-2.29851323261368,0.659805414060767,1409.79999999981,-1.57055935733956,-1.32156131874234,3,4,0,"f_curly_2","p4j9zv8tlc",0.577601305251165,0.216600489469187,-8.00193064596212,3.08801441486025,-6.6615903161942,1.65586847942257,-1.30114361554693,0.0984721441039566
-1.03078910086928,-2.40386123765487,1543,-0.716337814536774,-1.95892427466314,4,4,1,"f_curly_2","p4j9zv8tlc",0.577601305251165,0.216600489469187,-8.00193064596212,3.08801441486025,-6.6615903161942,1.65586847942257,-1.57055935733956,-1.32156131874234
0.395400547343172,-2.04731382560175,709.800000000745,-0.250550581775501,-1.28317921654756,5,4,0,"f_curly_2","p4j9zv8tlc",0.577601305251165,0.216600489469187,-8.00193064596212,3.08801441486025,-6.6615903161942,1.65586847942257,-0.716337814536774,-1.95892427466314
0.210524111463782,-0.911644290914062,827,-1.15336468216497,-0.562000023225261,6,4,0,"f_curly_2","p4j9zv8tlc",0.577601305251165,0.216600489469187,-8.00193064596212,3.08801441486025,-6.6615903161942,1.65586847942257,-0.250550581775501,-1.28317921654756
-1.87593852203221,-0.317398604158874,824.899999999441,-2.53084568360575,-1.12527604624581,7,4,0,"f_curly_2","p4j9zv8tlc",0.577601305251165,0.216600489469187,-8.00193064596212,3.08801441486025,-6.6615903161942,1.65586847942257,-1.15336468216497,-0.562000023225261
-2.39095145055337,-1.87564284942803,1378.09999999963,-2.83907152907645,-2.54402111088937,8,4,0,"f_curly_2","p4j9zv8tlc",0.577601305251165,0.216600489469187,-8.00193064596212,3.08801441486025,-6.6615903161942,1.65586847942257,-2.53084568360575,-1.12527604624581
-3.19648449259929,-3.52632531263689,395.099999999627,-1.99831034992825,-3.21780799751126,9,4,0,"f_curly_2","p4j9zv8tlc",0.577601305251165,0.216600489469187,-8.00193064596212,3.08801441486025,-6.6615903161942,1.65586847942257,-2.83907152907645,-2.54402111088937
-2.20607501467398,-4.14698191880342,731.700000000186,-1.50220172082142,-2.5663218973512,10,4,0,"f_curly_2","p4j9zv8tlc",0.577601305251165,0.216600489469187,-8.00193064596212,3.08801441486025,-6.6615903161942,1.65586847942257,-1.99831034992825,-3.21780799751126
-0.872323584401228,-2.85284686764767,1081,-2.37243342890271,-1.82401755719137,11,4,0,"f_curly_2","p4j9zv8tlc",0.577601305251165,0.216600489469187,-8.00193064596212,3.08801441486025,-6.6615903161942,1.65586847942257,-1.50220172082142,-2.5663218973512
-3.05122443583692,-1.51909543737492,126.799999999814,-3.75968791285882,-2.34971215984288,12,4,0,"f_curly_2","p4j9zv8tlc",0.577601305251165,0.216600489469187,-8.00193064596212,3.08801441486025,-6.6615903161942,1.65586847942257,-2.37243342890271,-1.82401755719137
-4.371770406404,-3.01131238411572,5206.09999999963,-4.10665974582884,-3.76588184681811,13,4,0,"f_curly_2","p4j9zv8tlc",0.577601305251165,0.216600489469187,-8.00193064596212,3.08801441486025,-6.6615903161942,1.65586847942257,-3.75968791285882,-2.34971215984288
-3.68508650170912,-3.96210548292402,591,-3.28056003678854,-4.47562600546816,14,4,0,"f_curly_2","p4j9zv8tlc",0.577601305251165,0.216600489469187,-8.00193064596212,3.08801441486025,-6.6615903161942,1.65586847942257,-4.10665974582884,-3.76588184681811
NA,NA,NA,0,0,0,0,NA,"zigzag_widening","0jul01nsqf",NA,NA,NA,NA,NA,NA,NA,NA
NA,NA,NA,-2.44315781172409,1.13180382885532,1,0,NA,"zigzag_widening","0jul01nsqf",3.22021990474752,1.20758246428032,-38.8404294082047,22.9877927629476,-29.3565238686536,17.0146427597107,0,0
NA,NA,NA,-1.11135026448239,-1.73634690935738,2,0,NA,"zigzag_widening","0jul01nsqf",3.22021990474752,1.20758246428032,-38.8404294082047,22.9877927629476,-29.3565238686536,17.0146427597107,-2.44315781172409,1.13180382885532
-4.31467783911488,-3.80703615638014,2087,-4.24086541420026,0.12272138623758,3,0,0,"zigzag_widening","0jul01nsqf",3.22021990474752,1.20758246428032,-38.8404294082047,22.9877927629476,-29.3565238686536,17.0146427597107,-1.11135026448239,-1.73634690935738
-3.03994214347231,-4.17883406760922,1939.19999998808,-2.22270052896478,-3.47269381871476,4,0,1,"zigzag_widening","0jul01nsqf",3.22021990474752,1.20758246428032,-38.8404294082047,22.9877927629476,-29.3565238686536,17.0146427597107,-4.24086541420026,0.12272138623758
-6.27989536989716,-3.06344033392197,3711.89999997616,-6.03857301667643,-0.886361056380159,5,0,1,"zigzag_widening","0jul01nsqf",3.22021990474752,1.20758246428032,-38.8404294082047,22.9877927629476,-29.3565238686536,17.0146427597107,-2.22270052896478,-3.47269381871476
-3.14617011810919,-5.82536767448087,1886.70000001788,-3.33405079344717,-5.20904072807214,6,0,1,"zigzag_widening","0jul01nsqf",3.22021990474752,1.20758246428032,-38.8404294082047,22.9877927629476,-29.3565238686536,17.0146427597107,-6.03857301667643,-0.886361056380159
-8.56379682459009,-1.73559065096097,1437.09999999404,-7.8362806191526,-1.8954434989979,7,0,1,"zigzag_widening","0jul01nsqf",3.22021990474752,1.20758246428032,-38.8404294082047,22.9877927629476,-29.3565238686536,17.0146427597107,-3.33405079344717,-5.20904072807214
-4.26156385179644,-7.89681317990004,1577.90000000596,-4.44540105792956,-6.94538763742952,8,0,1,"zigzag_widening","0jul01nsqf",3.22021990474752,1.20758246428032,-38.8404294082047,22.9877927629476,-29.3565238686536,17.0146427597107,-7.8362806191526,-1.8954434989979
-9.8916465075511,-2.95721235928509,1591.69999998808,-9.63398822162877,-2.90452594161564,9,0,1,"zigzag_widening","0jul01nsqf",3.22021990474752,1.20758246428032,-38.8404294082047,22.9877927629476,-29.3565238686536,17.0146427597107,-4.44540105792956,-6.94538763742952
-5.90809745866808,-8.69352298967664,981.699999988079,-5.55675132241195,-8.6817345467869,10,0,1,"zigzag_widening","0jul01nsqf",3.22021990474752,1.20758246428032,-38.8404294082047,22.9877927629476,-29.3565238686536,17.0146427597107,-9.63398822162877,-2.90452594161564
-11.1663822031937,-4.44440400420142,799.299999982119,-11.4316958241049,-3.91360838423338,11,0,1,"zigzag_widening","0jul01nsqf",3.22021990474752,1.20758246428032,-38.8404294082047,22.9877927629476,-29.3565238686536,17.0146427597107,-5.55675132241195,-8.6817345467869
-6.97037720503689,-9.91514469800076,730.699999988079,-6.66810158689434,-10.4180814561443,12,0,1,"zigzag_widening","0jul01nsqf",3.22021990474752,1.20758246428032,-38.8404294082047,22.9877927629476,-29.3565238686536,17.0146427597107,-11.4316958241049,-3.91360838423338
-12.8129158100653,-5.3473417886149,1178.39999997616,-13.2294034265811,-4.92269082685112,13,0,1,"zigzag_widening","0jul01nsqf",3.22021990474752,1.20758246428032,-38.8404294082047,22.9877927629476,-29.3565238686536,17.0146427597107,-6.66810158689434,-10.4180814561443
-7.55463106553973,-12.1459321653753,1167.70000001788,-7.77945185137673,-12.1544283655017,14,0,1,"zigzag_widening","0jul01nsqf",3.22021990474752,1.20758246428032,-38.8404294082047,22.9877927629476,-29.3565238686536,17.0146427597107,-13.2294034265811,-4.92269082685112
NA,NA,NA,0,0,0,1,NA,"triangle_1","2erutzn4hb",NA,NA,NA,NA,NA,NA,NA,NA
NA,NA,NA,1,0,1,1,NA,"triangle_1","2erutzn4hb",0.268256730430439,0.100596273911414,-2.07526461213221,3.07526461213221,-1.64277332450434,2.22012359369397,0,0
NA,NA,NA,0.5,0.866025403784439,2,1,NA,"triangle_1","2erutzn4hb",0.268256730430439,0.100596273911414,-2.07526461213221,3.07526461213221,-1.64277332450434,2.22012359369397,1,0
-0.00607628993356579,0.0123500997467529,1109.69999998808,-2.22044604925031e-16,3.33066907387547e-16,3,1,1,"triangle_1","2erutzn4hb",0.268256730430439,0.100596273911414,-2.07526461213221,3.07526461213221,-1.64277332450434,2.22012359369397,0.5,0.866025403784439
0.470932289679809,-0.802054792276083,1042.40000000596,1,8.81375475580763e-17,4,1,0,"triangle_1","2erutzn4hb",0.268256730430439,0.100596273911414,-2.07526461213221,3.07526461213221,-1.64277332450434,2.22012359369397,-2.22044604925031e-16,3.33066907387547e-16
0.511652534280951,0.879109591971057,921.899999991059,0.500000000000001,0.866025403784439,5,1,1,"triangle_1","2erutzn4hb",0.268256730430439,0.100596273911414,-2.07526461213221,3.07526461213221,-1.64277332450434,2.22012359369397,1,8.81375475580763e-17
-0.0118934677337292,0.00653292194658994,588.79999999702,-7.7715611723761e-16,1.4432899320127e-15,6,1,1,"triangle_1","2erutzn4hb",0.268256730430439,0.100596273911414,-2.07526461213221,3.07526461213221,-1.64277332450434,2.22012359369397,0.500000000000001,0.866025403784439
1.01192982509498,0.00653292194658994,407.79999999702,0.999999999999999,-8.22925627046488e-16,7,1,1,"triangle_1","2erutzn4hb",0.268256730430439,0.100596273911414,-2.07526461213221,3.07526461213221,-1.64277332450434,2.22012359369397,-7.7715611723761e-16,1.4432899320127e-15
0.494201000880462,0.879109591971057,182.40000000596,0.500000000000002,0.866025403784439,8,1,1,"triangle_1","2erutzn4hb",0.268256730430439,0.100596273911414,-2.07526461213221,3.07526461213221,-1.64277332450434,2.22012359369397,0.999999999999999,-8.22925627046488e-16
-0.0118934677337292,0.000715744146426722,249.100000008941,2.22044604925031e-16,1.66533453693773e-15,9,1,1,"triangle_1","2erutzn4hb",0.268256730430439,0.100596273911414,-2.07526461213221,3.07526461213221,-1.64277332450434,2.22012359369397,0.500000000000002,0.866025403784439
1.00611264729482,-0.0109186114538995,349.90000000596,1,9.30546457449323e-16,10,1,1,"triangle_1","2erutzn4hb",0.268256730430439,0.100596273911414,-2.07526461213221,3.07526461213221,-1.64277332450434,2.22012359369397,2.22044604925031e-16,1.66533453693773e-15
0.494201000880462,0.879109591971057,69.7999999970198,0.5,0.866025403784439,11,1,1,"triangle_1","2erutzn4hb",0.268256730430439,0.100596273911414,-2.07526461213221,3.07526461213221,-1.64277332450434,2.22012359369397,1,9.30546457449323e-16
-0.0118934677337292,0.00653292194658994,161.5,1.16573417585641e-15,0,12,1,1,"triangle_1","2erutzn4hb",0.268256730430439,0.100596273911414,-2.07526461213221,3.07526461213221,-1.64277332450434,2.22012359369397,0.5,0.866025403784439
1.00029546949465,0.000715744146426722,457.29999999702,1,2.57299623948262e-15,13,1,1,"triangle_1","2erutzn4hb",0.268256730430439,0.100596273911414,-2.07526461213221,3.07526461213221,-1.64277332450434,2.22012359369397,1.16573417585641e-15,0
0.488383823080299,0.879109591971057,223.100000008941,0.499999999999998,0.866025403784439,14,1,1,"triangle_1","2erutzn4hb",0.268256730430439,0.100596273911414,-2.07526461213221,3.07526461213221,-1.64277332450434,2.22012359369397,1,2.57299623948262e-15
NA,NA,NA,0,0,0,3,NA,"3_pts","lw2cc8c6k7",NA,NA,NA,NA,NA,NA,NA,NA
NA,NA,NA,1,0,1,3,NA,"3_pts","lw2cc8c6k7",0.536513460860874,0.201192547822828,-4.1505292242644,6.15052922426439,-3.8628969181983,3.8628969181983,0,0
NA,NA,NA,2,0,2,3,NA,"3_pts","lw2cc8c6k7",0.536513460860874,0.201192547822828,-4.1505292242644,6.15052922426439,-3.8628969181983,3.8628969181983,1,0
2.62245203784563,-1.0339352307665,3252.79999999888,0,0,3,3,0,"3_pts","lw2cc8c6k7",0.536513460860874,0.201192547822828,-4.1505292242644,6.15052922426439,-3.8628969181983,3.8628969181983,2,0
1.01007740297515,0.0241856233672579,607,1,0,4,3,1,"3_pts","lw2cc8c6k7",0.536513460860874,0.201192547822828,-4.1505292242644,6.15052922426439,-3.8628969181983,3.8628969181983,0,0
2.02788889123714,0.014108281899317,516.599999999627,2,0,5,3,1,"3_pts","lw2cc8c6k7",0.536513460860874,0.201192547822828,-4.1505292242644,6.15052922426439,-3.8628969181983,3.8628969181983,1,0
-0.0178114267547826,0.0342629648351984,628.400000000373,0,0,6,3,1,"3_pts","lw2cc8c6k7",0.536513460860874,0.201192547822828,-4.1505292242644,6.15052922426439,-3.8628969181983,3.8628969181983,2,0
1.02015474444309,-0.00604640103656395,519.199999999255,1,0,7,3,1,"3_pts","lw2cc8c6k7",0.536513460860874,0.201192547822828,-4.1505292242644,6.15052922426439,-3.8628969181983,3.8628969181983,0,0
2.03796623270508,0.0342629648351984,468.89999999851,2,0,8,3,1,"3_pts","lw2cc8c6k7",0.536513460860874,0.201192547822828,-4.1505292242644,6.15052922426439,-3.8628969181983,3.8628969181983,1,0
0.0224979391169793,0.0241856233672579,803.900000000373,0,0,9,3,1,"3_pts","lw2cc8c6k7",0.536513460860874,0.201192547822828,-4.1505292242644,6.15052922426439,-3.8628969181983,3.8628969181983,2,0
0.959690695635447,0.0644949892390199,855.400000000373,1,0,10,3,1,"3_pts","lw2cc8c6k7",0.536513460860874,0.201192547822828,-4.1505292242644,6.15052922426439,-3.8628969181983,3.8628969181983,0,0
1.98757952536538,0.00403094043137653,805.900000000373,2,0,11,3,1,"3_pts","lw2cc8c6k7",0.536513460860874,0.201192547822828,-4.1505292242644,6.15052922426439,-3.8628969181983,3.8628969181983,1,0
0.0124205976490392,-0.00604640103656395,2876.19999999925,0,0,12,3,1,"3_pts","lw2cc8c6k7",0.536513460860874,0.201192547822828,-4.1505292242644,6.15052922426439,-3.8628969181983,3.8628969181983,2,0
0.959690695635447,-0.00604640103656395,941.900000000372,1,0,13,3,1,"3_pts","lw2cc8c6k7",0.536513460860874,0.201192547822828,-4.1505292242644,6.15052922426439,-3.8628969181983,3.8628969181983,0,0
1.99765686683332,0.0241856233672579,316.400000000373,2,0,14,3,1,"3_pts","lw2cc8c6k7",0.536513460860874,0.201192547822828,-4.1505292242644,6.15052922426439,-3.8628969181983,3.8628969181983,1,0
NA,NA,NA,0,0,0,7,NA,"square_2","4lj0bpd5w5",NA,NA,NA,NA,NA,NA,NA,NA
NA,NA,NA,1,0,1,7,NA,"square_2","4lj0bpd5w5",0.269430641277674,0.101036490479128,-0.872248441979953,4.30081987055138,-0.511329188627822,3.36847204577068,0,0
NA,NA,NA,2,0,2,7,NA,"square_2","4lj0bpd5w5",0.269430641277674,0.101036490479128,-0.872248441979953,4.30081987055138,-0.511329188627822,3.36847204577068,1,0
3.08858456423138,0.0261815643973116,1592.19999998808,3,0,3,7,1,"square_2","4lj0bpd5w5",0.269430641277674,0.101036490479128,-0.872248441979953,4.30081987055138,-0.511329188627822,3.36847204577068,2,0
2.98054220181427,0.75654793433699,464.099999964237,3,1,4,7,1,"square_2","4lj0bpd5w5",0.269430641277674,0.101036490479128,-0.872248441979953,4.30081987055138,-0.511329188627822,3.36847204577068,3,0
2.98486389631095,1.82400647501806,636.099999964237,3,2,5,7,1,"square_2","4lj0bpd5w5",0.269430641277674,0.101036490479128,-0.872248441979953,4.30081987055138,-0.511329188627822,3.36847204577068,3,1
3.03672423027117,2.73588401381849,717.699999988079,3,3,6,7,1,"square_2","4lj0bpd5w5",0.269430641277674,0.101036490479128,-0.872248441979953,4.30081987055138,-0.511329188627822,3.36847204577068,3,2
2.12052499697406,2.97789890563282,571.899999976158,2,3,7,7,1,"square_2","4lj0bpd5w5",0.269430641277674,0.101036490479128,-0.872248441979953,4.30081987055138,-0.511329188627822,3.36847204577068,3,3
1.11789187374325,2.95629043314939,1766,1,3,8,7,1,"square_2","4lj0bpd5w5",0.269430641277674,0.101036490479128,-0.872248441979953,4.30081987055138,-0.511329188627822,3.36847204577068,2,3
-0.0835391963350336,2.9822206001295,436.199999988079,0,3,9,7,1,"square_2","4lj0bpd5w5",0.269430641277674,0.101036490479128,-0.872248441979953,4.30081987055138,-0.511329188627822,3.36847204577068,1,3
-0.144042919288616,2.00983933837549,247.099999964237,-1.83697019872103e-16,2,10,7,1,"square_2","4lj0bpd5w5",0.269430641277674,0.101036490479128,-0.872248441979953,4.30081987055138,-0.511329188627822,3.36847204577068,0,3
-0.0316788623748196,0.873233685747471,290.300000011921,-3.67394039744206e-16,1,11,7,1,"square_2","4lj0bpd5w5",0.269430641277674,0.101036490479128,-0.872248441979953,4.30081987055138,-0.511329188627822,3.36847204577068,-1.83697019872103e-16,2
-0.0446439458648732,-0.0343221585562712,119.800000011921,-5.51091059616309e-16,0,12,7,1,"square_2","4lj0bpd5w5",0.269430641277674,0.101036490479128,-0.872248441979953,4.30081987055138,-0.511329188627822,3.36847204577068,-3.67394039744206e-16,1
0.970954260855982,0.0175381754039426,1174.5,1,-2.44929359829471e-16,13,7,1,"square_2","4lj0bpd5w5",0.269430641277674,0.101036490479128,-0.872248441979953,4.30081987055138,-0.511329188627822,3.36847204577068,-5.51091059616309e-16,0
1.97790907858347,-0.0300004640595867,672.700000047684,2,-4.89858719658941e-16,14,7,1,"square_2","4lj0bpd5w5",0.269430641277674,0.101036490479128,-0.872248441979953,4.30081987055138,-0.511329188627822,3.36847204577068,1,-2.44929359829471e-16
NA,NA,NA,0,0,0,5,NA,"radial_1","p4j9zv8tlc",NA,NA,NA,NA,NA,NA,NA,NA
NA,NA,NA,0.949595443096897,-0.313478060555453,1,5,NA,"radial_1","p4j9zv8tlc",0.267968990941736,0.100488371603151,-2.61388100372355,2.53112362235779,-1.84721528274069,2.01153818682032,0,0
NA,NA,NA,0,0,2,5,NA,"radial_1","p4j9zv8tlc",0.267968990941736,0.100488371603151,-2.61388100372355,2.53112362235779,-1.84721528274069,2.01153818682032,0.949595443096897,-0.313478060555453
0.326199588068194,0.771369528123043,1925.29999999981,0.979112807317579,0.20331775757835,3,5,0,"radial_1","p4j9zv8tlc",0.267968990941736,0.100488371603151,-2.61388100372355,2.53112362235779,-1.84721528274069,2.01153818682032,0,0
1.52698656914933,0.373149355825726,974.899999999441,0,0,4,5,0,"radial_1","p4j9zv8tlc",0.267968990941736,0.100488371603151,-2.61388100372355,2.53112362235779,-1.84721528274069,2.01153818682032,0.979112807317579,0.20331775757835
0.473234728608741,0.612081459204116,1298.09999999963,0.746277685518547,0.665634746762127,5,5,0,"radial_1","p4j9zv8tlc",0.267968990941736,0.100488371603151,-2.61388100372355,2.53112362235779,-1.84721528274069,2.01153818682032,0,0
0.0137499144195292,-0.0250708164715916,1844.80000000075,0,0,6,5,1,"radial_1","p4j9zv8tlc",0.267968990941736,0.100488371603151,-2.61388100372355,2.53112362235779,-1.84721528274069,2.01153818682032,0.746277685518547,0.665634746762127
0.0443822353654766,0.844887098393317,1694.10000000056,0.313478060555453,0.949595443096897,7,5,0,"radial_1","p4j9zv8tlc",0.267968990941736,0.100488371603151,-2.61388100372355,2.53112362235779,-1.84721528274069,2.01153818682032,0,0
0.0198763786087186,0.0239408970419244,1962,0,0,8,5,1,"radial_1","p4j9zv8tlc",0.267968990941736,0.100488371603151,-2.61388100372355,2.53112362235779,-1.84721528274069,2.01153818682032,0.313478060555453,0.949595443096897
-0.219055724769672,0.869392955150075,2361.29999999981,-0.20331775757835,0.979112807317579,9,5,1,"radial_1","p4j9zv8tlc",0.267968990941736,0.100488371603151,-2.61388100372355,2.53112362235779,-1.84721528274069,2.01153818682032,0,0
-0.00462947814803938,-0.0250708164715916,1473.30000000075,0,0,10,5,1,"radial_1","p4j9zv8tlc",0.267968990941736,0.100488371603151,-2.61388100372355,2.53112362235779,-1.84721528274069,2.01153818682032,-0.20331775757835,0.979112807317579
-0.531505398418336,0.771369528123043,664.899999999441,-0.665634746762126,0.746277685518547,11,5,1,"radial_1","p4j9zv8tlc",0.267968990941736,0.100488371603151,-2.61388100372355,2.53112362235779,-1.84721528274069,2.01153818682032,0,0
0.00149698604115045,0.00556150447435577,959,0,0,12,5,1,"radial_1","p4j9zv8tlc",0.267968990941736,0.100488371603151,-2.61388100372355,2.53112362235779,-1.84721528274069,2.01153818682032,-0.665634746762126,0.746277685518547
-0.880713857202137,0.336390570690589,1562,-0.949595443096897,0.313478060555453,13,5,1,"radial_1","p4j9zv8tlc",0.267968990941736,0.100488371603151,-2.61388100372355,2.53112362235779,-1.84721528274069,2.01153818682032,0,0
0.0321293069870978,0.0116879686635454,828.699999999255,0,0,14,5,1,"radial_1","p4j9zv8tlc",0.267968990941736,0.100488371603151,-2.61388100372355,2.53112362235779,-1.84721528274069,2.01153818682032,-0.949595443096897,0.313478060555453
NA,NA,NA,0,0,0,2,NA,"zigzag_2","2erutzn4hb",NA,NA,NA,NA,NA,NA,NA,NA
NA,NA,NA,-0.172095102735381,0.985080339675145,1,2,NA,"zigzag_2","2erutzn4hb",0.634675533314782,0.238003324993043,-9.5400030242155,2.64576721542831,-2.44740448036998,6.69192319936287,0,0
NA,NA,NA,-0.344190205470762,1.97016067935029,2,2,NA,"zigzag_2","2erutzn4hb",0.634675533314782,0.238003324993043,-9.5400030242155,2.64576721542831,-2.44740448036998,6.69192319936287,-0.172095102735381,0.985080339675145
-0.639420581805688,3.10629316553725,853.5,-0.516285308206144,2.95524101902543,3,2,1,"zigzag_2","2erutzn4hb",0.634675533314782,0.238003324993043,-9.5400030242155,2.64576721542831,-2.44740448036998,6.69192319936287,-0.344190205470762,1.97016067935029
-0.859628763231372,4.41377924275225,755.90000000596,-1.0911526822508,2.13699441667441,4,2,0,"zigzag_2","2erutzn4hb",0.634675533314782,0.238003324993043,-9.5400030242155,2.64576721542831,-2.44740448036998,6.69192319936287,-0.516285308206144,2.95524101902543
-1.94690665902069,0.835396294584883,1130.39999999106,-1.66602005629546,1.31874781432338,5,2,1,"zigzag_2","2erutzn4hb",0.634675533314782,0.238003324993043,-9.5400030242155,2.64576721542831,-2.44740448036998,6.69192319936287,-1.0911526822508,2.13699441667441
-2.52495313526311,2.34932754188646,870.90000000596,-2.24088743034012,0.500501211972356,6,2,0,"zigzag_2","2erutzn4hb",0.634675533314782,0.238003324993043,-9.5400030242155,2.64576721542831,-2.44740448036998,6.69192319936287,-1.66602005629546,1.31874781432338
-3.18557767954016,1.46849481618373,339.70000000298,-2.4129825330755,1.4855815516475,7,2,0,"zigzag_2","2erutzn4hb",0.634675533314782,0.238003324993043,-9.5400030242155,2.64576721542831,-2.44740448036998,6.69192319936287,-2.24088743034012,0.500501211972356
-2.59376819195864,2.37685356456467,222.100000008941,-2.58507763581088,2.47066189132264,8,2,1,"zigzag_2","2erutzn4hb",0.634675533314782,0.238003324993043,-9.5400030242155,2.64576721542831,-2.44740448036998,6.69192319936287,-2.4129825330755,1.4855815516475
-2.66258324865416,3.36779038098025,231.59999999404,-2.75717273854626,3.45574223099779,9,2,1,"zigzag_2","2erutzn4hb",0.634675533314782,0.238003324993043,-9.5400030242155,2.64576721542831,-2.44740448036998,6.69192319936287,-2.58507763581088,2.47066189132264
-3.66728307640885,2.52824668929483,421.09999999404,-3.33204011259092,2.63749562864676,10,2,1,"zigzag_2","2erutzn4hb",0.634675533314782,0.238003324993043,-9.5400030242155,2.64576721542831,-2.44740448036998,6.69192319936287,-2.75717273854626,3.45574223099779
-4.14898847327753,1.52354686154015,173.70000000298,-3.90690748663558,1.81924902629574,11,2,1,"zigzag_2","2erutzn4hb",0.634675533314782,0.238003324993043,-9.5400030242155,2.64576721542831,-2.44740448036998,6.69192319936287,-3.33204011259092,2.63749562864676
-4.72703494951995,0.64271413583741,338.899999991059,-4.48177486068024,1.00100242394471,12,2,1,"zigzag_2","2erutzn4hb",0.634675533314782,0.238003324993043,-9.5400030242155,2.64576721542831,-2.44740448036998,6.69192319936287,-3.90690748663558,1.81924902629574
-4.97476915362385,2.33556453054736,1585.5,-4.65386996341562,1.98608276361986,13,2,1,"zigzag_2","2erutzn4hb",0.634675533314782,0.238003324993043,-9.5400030242155,2.64576721542831,-2.44740448036998,6.69192319936287,-4.48177486068024,1.00100242394471
-4.72703494951995,3.25768629026741,70.1000000089407,-4.825965066151,2.971163103295,14,2,1,"zigzag_2","2erutzn4hb",0.634675533314782,0.238003324993043,-9.5400030242155,2.64576721542831,-2.44740448036998,6.69192319936287,-4.65386996341562,1.98608276361986
NA,NA,NA,0,0,0,1,NA,"stairs_2","0jul01nsqf",NA,NA,NA,NA,NA,NA,NA,NA
NA,NA,NA,0.998106520400169,-0.0615091370014878,1,1,NA,"stairs_2","0jul01nsqf",1.3212520242296,0.495469509086099,-5.32821896779403,20.0398198974142,-3.95493941106251,15.0710897378437,0,0
NA,NA,NA,1.99621304080034,-0.123018274002975,2,1,NA,"stairs_2","0jul01nsqf",1.3212520242296,0.495469509086099,-5.32821896779403,20.0398198974142,-3.95493941106251,15.0710897378437,0.998106520400169,-0.0615091370014878
3.28053892376871,-0.140553448666892,3115.29999998212,2.11923131480331,1.87319476679736,3,1,0,"stairs_2","0jul01nsqf",1.3212520242296,0.495469509086099,-5.32821896779403,20.0398198974142,-3.95493941106251,15.0710897378437,1.99621304080034,-0.123018274002975
4.08686511185591,1.71181752396586,2344.69999998808,3.11733783520348,1.81168562979587,4,1,1,"stairs_2","0jul01nsqf",1.3212520242296,0.495469509086099,-5.32821896779403,20.0398198974142,-3.95493941106251,15.0710897378437,2.11923131480331,1.87319476679736
3.01902772763233,-0.249516447057054,435.800000011921,4.11544435560365,1.75017649279439,5,1,0,"stairs_2","0jul01nsqf",1.3212520242296,0.495469509086099,-5.32821896779403,20.0398198974142,-3.95493941106251,15.0710897378437,3.11733783520348,1.81168562979587
4.32658370831427,-0.423857244481313,1898.79999998212,4.23846262960663,3.74638953359472,6,1,0,"stairs_2","0jul01nsqf",1.3212520242296,0.495469509086099,-5.32821896779403,20.0398198974142,-3.95493941106251,15.0710897378437,4.11544435560365,1.75017649279439
5.91744348481064,3.65135889531075,1668,5.2365691500068,3.68488039659324,7,1,1,"stairs_2","0jul01nsqf",1.3212520242296,0.495469509086099,-5.32821896779403,20.0398198974142,-3.95493941106251,15.0710897378437,4.23846262960663,3.74638953359472
6.68018447354177,3.56418849659862,800.800000011921,6.23467567040696,3.62337125959175,8,1,1,"stairs_2","0jul01nsqf",1.3212520242296,0.495469509086099,-5.32821896779403,20.0398198974142,-3.95493941106251,15.0710897378437,5.2365691500068,3.68488039659324
6.46225847676145,5.37297426987531,912.800000011921,6.35769394440994,5.61958430039209,9,1,1,"stairs_2","0jul01nsqf",1.3212520242296,0.495469509086099,-5.32821896779403,20.0398198974142,-3.95493941106251,15.0710897378437,6.23467567040696,3.62337125959175
7.46471806195094,5.43835206890941,380.199999988079,7.35580046481011,5.5580751633906,10,1,1,"stairs_2","0jul01nsqf",1.3212520242296,0.495469509086099,-5.32821896779403,20.0398198974142,-3.95493941106251,15.0710897378437,6.35769394440994,5.61958430039209
8.18387385132601,5.39476686955334,539.200000017881,8.35390698521027,5.49656602638911,11,1,1,"stairs_2","0jul01nsqf",1.3212520242296,0.495469509086099,-5.32821896779403,20.0398198974142,-3.95493941106251,15.0710897378437,7.35580046481011,5.5580751633906
8.42359244778437,6.98562664604971,215.40000000596,8.47692525921325,7.49277906718945,12,1,1,"stairs_2","0jul01nsqf",1.3212520242296,0.495469509086099,-5.32821896779403,20.0398198974142,-3.95493941106251,15.0710897378437,8.35390698521027,5.49656602638911
9.57860023072009,7.39968603993233,233.800000011921,9.47503177961342,7.43126993018796,13,1,1,"stairs_2","0jul01nsqf",1.3212520242296,0.495469509086099,-5.32821896779403,20.0398198974142,-3.95493941106251,15.0710897378437,8.47692525921325,7.49277906718945
10.3849264188073,7.29072304154217,293.300000011921,10.4731383000136,7.36976079318647,14,1,1,"stairs_2","0jul01nsqf",1.3212520242296,0.495469509086099,-5.32821896779403,20.0398198974142,-3.95493941106251,15.0710897378437,9.47503177961342,7.43126993018796
NA,NA,NA,0,0,0,8,NA,"zigzag_1","4lj0bpd5w5",NA,NA,NA,NA,NA,NA,NA,NA
NA,NA,NA,-0.459088015321693,-0.888390789117035,1,8,NA,"zigzag_1","4lj0bpd5w5",0.68493841956189,0.256851907335709,-10.4627229945855,2.68809466100275,-5.48621651306949,4.37689672862173,0,0
NA,NA,NA,-0.918176030643386,-1.77678157823407,2,8,NA,"zigzag_1","4lj0bpd5w5",0.68493841956189,0.256851907335709,-10.4627229945855,2.68809466100275,-5.48621651306949,4.37689672862173,-0.459088015321693,-0.888390789117035
-1.56916669366765,-0.73593682732597,1177.29999995232,-1.22173893317627,-0.823970178110304,3,8,1,"zigzag_1","4lj0bpd5w5",0.68493841956189,0.256851907335709,-10.4627229945855,2.68809466100275,-5.48621651306949,4.37689672862173,-0.918176030643386,-1.77678157823407
-1.74495038831211,0.0331168367435204,240.199999988079,-1.52530183570915,0.128841222013462,4,8,1,"zigzag_1","4lj0bpd5w5",0.68493841956189,0.256851907335709,-10.4627229945855,2.68809466100275,-5.48621651306949,4.37689672862173,-1.22173893317627,-0.823970178110304
-2.34920683865242,-0.911720521970426,163.899999976158,-1.98438985103084,-0.759549567103573,5,8,1,"zigzag_1","4lj0bpd5w5",0.68493841956189,0.256851907335709,-10.4627229945855,2.68809466100275,-5.48621651306949,4.37689672862173,-1.52530183570915,0.128841222013462
-2.71176070885661,-1.81261195702326,155.300000011921,-2.44347786635253,-1.64794035622061,6,8,1,"zigzag_1","4lj0bpd5w5",0.68493841956189,0.256851907335709,-10.4627229945855,2.68809466100275,-5.48621651306949,4.37689672862173,-1.98438985103084,-0.759549567103573
-2.9205038462469,-0.724950346410692,1186.19999998808,-2.74704076888542,-0.695128956096842,7,8,1,"zigzag_1","4lj0bpd5w5",0.68493841956189,0.256851907335709,-10.4627229945855,2.68809466100275,-5.48621651306949,4.37689672862173,-2.44347786635253,-1.64794035622061
-3.15121994546775,0.17594108864214,47.3000000119209,-3.0506036714183,0.257682444026925,8,8,1,"zigzag_1","4lj0bpd5w5",0.68493841956189,0.256851907335709,-10.4627229945855,2.68809466100275,-5.48621651306949,4.37689672862173,-2.74704076888542,-0.695128956096842
-3.60166566299416,-0.779882750987085,302.800000011921,-3.50969168673999,-0.63070834509011,9,8,1,"zigzag_1","4lj0bpd5w5",0.68493841956189,0.256851907335709,-10.4627229945855,2.68809466100275,-5.48621651306949,4.37689672862173,-3.0506036714183,0.257682444026925
-3.93126009045251,-1.58189585780241,604.700000047684,-3.96877970206168,-1.51909913420715,10,8,1,"zigzag_1","4lj0bpd5w5",0.68493841956189,0.256851907335709,-10.4627229945855,2.68809466100275,-5.48621651306949,4.37689672862173,-3.50969168673999,-0.63070834509011
-4.52453005987755,-0.538180170850959,457.100000023842,-4.27234260459456,-0.566287734083379,11,8,1,"zigzag_1","4lj0bpd5w5",0.68493841956189,0.256851907335709,-10.4627229945855,2.68809466100275,-5.48621651306949,4.37689672862173,-3.96877970206168,-1.51909913420715
-4.64538134994561,0.263832935964367,1437.5,-4.57590550712744,0.386523666040387,12,8,1,"zigzag_1","4lj0bpd5w5",0.68493841956189,0.256851907335709,-10.4627229945855,2.68809466100275,-5.48621651306949,4.37689672862173,-4.27234260459456,-0.566287734083379
-5.1617459529637,-0.648044980003743,935.199999988079,-5.03499352244914,-0.501867123076648,13,8,1,"zigzag_1","4lj0bpd5w5",0.68493841956189,0.256851907335709,-10.4627229945855,2.68809466100275,-5.48621651306949,4.37689672862173,-4.57590550712744,0.386523666040387
-5.60120518957484,-1.55992289597185,558.900000035763,-5.49408153777083,-1.39025791219368,14,8,1,"zigzag_1","4lj0bpd5w5",0.68493841956189,0.256851907335709,-10.4627229945855,2.68809466100275,-5.48621651306949,4.37689672862173,-5.03499352244914,-0.501867123076648
NA,NA,NA,26,0,0,4,NA,"line","lw2cc8c6k7",NA,NA,NA,NA,NA,NA,NA,NA
NA,NA,NA,24.7,1,1,4,NA,"line","lw2cc8c6k7",1.6,0.6,-2.5,28.22,-1.5,21.54,26,0
NA,NA,NA,23.4,2,2,4,NA,"line","lw2cc8c6k7",1.6,0.6,-2.5,28.22,-1.5,21.54,24.7,1
21.9660068357464,3.48050480504671,2283.19999999925,22.1,3,3,4,1,"line","lw2cc8c6k7",1.6,0.6,-2.5,28.22,-1.5,21.54,23.4,2
20.2830485105654,4.71267072169707,133.300000000745,20.8,4,4,4,1,"line","lw2cc8c6k7",1.6,0.6,-2.5,28.22,-1.5,21.54,22.1,3
19.2612523845627,5.79457250217056,417,19.5,5,5,4,1,"line","lw2cc8c6k7",1.6,0.6,-2.5,28.22,-1.5,21.54,20.8,4
18.0591392951477,6.39562904687806,1212.19999999925,18.2,6,6,4,1,"line","lw2cc8c6k7",1.6,0.6,-2.5,28.22,-1.5,21.54,19.5,5
16.4663394516729,7.56768930905767,725.10000000149,16.9,7,7,4,1,"line","lw2cc8c6k7",1.6,0.6,-2.5,28.22,-1.5,21.54,18.2,6
14.8434867809626,8.73974957123728,343.199999999255,15.6,8,8,4,1,"line","lw2cc8c6k7",1.6,0.6,-2.5,28.22,-1.5,21.54,16.9,7
13.4610567281354,9.7915985244754,485.800000000745,14.3,9,9,4,1,"line","lw2cc8c6k7",1.6,0.6,-2.5,28.22,-1.5,21.54,15.6,8
12.3190492931912,10.8133946504781,365.10000000149,13,10,10,4,1,"line","lw2cc8c6k7",1.6,0.6,-2.5,28.22,-1.5,21.54,14.3,9
11.7780984029544,11.2641870590088,502.39999999851,11.7,11,11,4,1,"line","lw2cc8c6k7",1.6,0.6,-2.5,28.22,-1.5,21.54,13,10
10.2754570411857,12.4362473211884,270,10.4,12,12,4,1,"line","lw2cc8c6k7",1.6,0.6,-2.5,28.22,-1.5,21.54,11.7,11
8.89302698835844,13.4279906199557,217.099999997765,9.1,13,13,4,1,"line","lw2cc8c6k7",1.6,0.6,-2.5,28.22,-1.5,21.54,10.4,12
7.48054410829583,13.7585717195449,293.800000000745,7.8,14,14,4,1,"line","lw2cc8c6k7",1.6,0.6,-2.5,28.22,-1.5,21.54,9.1,13
NA,NA,NA,0,0,0,3,NA,"alternating_diff_2","2erutzn4hb",NA,NA,NA,NA,NA,NA,NA,NA
NA,NA,NA,1,0,1,3,NA,"alternating_diff_2","2erutzn4hb",1.79620427518449,0.673576603194183,-7.2435610417711,27.2435610417711,-13.4088612575188,12.4564803051378,0,0
NA,NA,NA,2,0,2,3,NA,"alternating_diff_2","2erutzn4hb",1.79620427518449,0.673576603194183,-7.2435610417711,27.2435610417711,-13.4088612575188,12.4564803051378,1,0
3.22266606022155,-0.0672669436075335,1103.70000000298,3,-2,3,3,0,"alternating_diff_2","2erutzn4hb",1.79620427518449,0.673576603194183,-7.2435610417711,27.2435610417711,-13.4088612575188,12.4564803051378,2,0
3.53427321706404,-3.5728474580855,345.300000011921,4,0,4,3,0,"alternating_diff_2","2erutzn4hb",1.79620427518449,0.673576603194183,-7.2435610417711,27.2435610417711,-13.4088612575188,12.4564803051378,3,-2
5.67657242035613,0.0885366348137104,299.09999999404,5,0,5,3,1,"alternating_diff_2","2erutzn4hb",1.79620427518449,0.673576603194183,-7.2435610417711,27.2435610417711,-13.4088612575188,12.4564803051378,4,0
6.68929568009422,0.0885366348137104,124.90000000596,6,0,6,3,1,"alternating_diff_2","2erutzn4hb",1.79620427518449,0.673576603194183,-7.2435610417711,27.2435610417711,-13.4088612575188,12.4564803051378,5,0
7.39041178298981,-2.28746793611025,78.5,7,-2,7,3,1,"alternating_diff_2","2erutzn4hb",1.79620427518449,0.673576603194183,-7.2435610417711,27.2435610417711,-13.4088612575188,12.4564803051378,6,0
7.77992072904292,0.0885366348137104,710.59999999404,8,0,8,3,1,"alternating_diff_2","2erutzn4hb",1.79620427518449,0.673576603194183,-7.2435610417711,27.2435610417711,-13.4088612575188,12.4564803051378,7,-2
9.26005472404473,0.0106348456030876,131.70000000298,9,0,9,3,1,"alternating_diff_2","2erutzn4hb",1.79620427518449,0.673576603194183,-7.2435610417711,27.2435610417711,-13.4088612575188,12.4564803051378,8,0
10.3506797729934,0.0106348456030876,612.699999988079,10,0,10,3,1,"alternating_diff_2","2erutzn4hb",1.79620427518449,0.673576603194183,-7.2435610417711,27.2435610417711,-13.4088612575188,12.4564803051378,9,0
11.0907467704943,-2.28746793611025,357.59999999404,11,-2,11,3,1,"alternating_diff_2","2erutzn4hb",1.79620427518449,0.673576603194183,-7.2435610417711,27.2435610417711,-13.4088612575188,12.4564803051378,10,0
11.7139610841793,0.0106348456030876,226.5,12,0,12,3,1,"alternating_diff_2","2erutzn4hb",1.79620427518449,0.673576603194183,-7.2435610417711,27.2435610417711,-13.4088612575188,12.4564803051378,11,-2
12.9603897115493,-0.028316049002223,221.20000000298,13,0,13,3,1,"alternating_diff_2","2erutzn4hb",1.79620427518449,0.673576603194183,-7.2435610417711,27.2435610417711,-13.4088612575188,12.4564803051378,12,0
14.051014760498,0.0106348456030876,159.399999991059,14,0,14,3,1,"alternating_diff_2","2erutzn4hb",1.79620427518449,0.673576603194183,-7.2435610417711,27.2435610417711,-13.4088612575188,12.4564803051378,13,0
NA,NA,NA,0,0,0,9,NA,"alternating_diff_1","4lj0bpd5w5",NA,NA,NA,NA,NA,NA,NA,NA
NA,NA,NA,0,1,1,9,NA,"alternating_diff_1","4lj0bpd5w5",0.898102137592243,0.336788301597091,-3.85987575898078,13.3836852827903,-5.99014491447367,6.94252586685463,0,0
NA,NA,NA,1,1,2,9,NA,"alternating_diff_1","4lj0bpd5w5",0.898102137592243,0.336788301597091,-3.85987575898078,13.3836852827903,-5.99014491447367,6.94252586685463,0,1
0.857974066566439,-0.0208043909282383,2832.89999997616,1,0,3,9,1,"alternating_diff_1","4lj0bpd5w5",0.898102137592243,0.336788301597091,-3.85987575898078,13.3836852827903,-5.99014491447367,6.94252586685463,1,1
1.86636944912615,0.0512238506831695,174.100000023842,2,0,4,9,1,"alternating_diff_1","4lj0bpd5w5",0.898102137592243,0.336788301597091,-3.85987575898078,13.3836852827903,-5.99014491447367,6.94252586685463,1,0
1.79434120751474,1.03080793659832,123.800000011921,2,1,5,9,1,"alternating_diff_1","4lj0bpd5w5",0.898102137592243,0.336788301597091,-3.85987575898078,13.3836852827903,-5.99014491447367,6.94252586685463,2,0
3.04763261155324,1.0452135849206,509.899999976158,3,1,6,9,1,"alternating_diff_1","4lj0bpd5w5",0.898102137592243,0.336788301597091,-3.85987575898078,13.3836852827903,-5.99014491447367,6.94252586685463,2,1
2.93238742497499,-0.0640213358950827,493.199999988079,3,0,7,9,1,"alternating_diff_1","4lj0bpd5w5",0.898102137592243,0.336788301597091,-3.85987575898078,13.3836852827903,-5.99014491447367,6.94252586685463,3,1
3.86875456592329,-0.0352100392505195,278.100000023842,4,0,8,9,1,"alternating_diff_1","4lj0bpd5w5",0.898102137592243,0.336788301597091,-3.85987575898078,13.3836852827903,-5.99014491447367,6.94252586685463,3,0
3.79672632431188,0.973185343309192,66.6999999880791,4,1,9,9,1,"alternating_diff_1","4lj0bpd5w5",0.898102137592243,0.336788301597091,-3.85987575898078,13.3836852827903,-5.99014491447367,6.94252586685463,4,0
4.90596124512757,1.00199663995375,261.400000035763,5,1,10,9,1,"alternating_diff_1","4lj0bpd5w5",0.898102137592243,0.336788301597091,-3.85987575898078,13.3836852827903,-5.99014491447367,6.94252586685463,4,1
4.93477254177213,-0.107238280861928,522.800000011921,5,0,11,9,1,"alternating_diff_1","4lj0bpd5w5",0.898102137592243,0.336788301597091,-3.85987575898078,13.3836852827903,-5.99014491447367,6.94252586685463,5,1
6.04400746258781,-0.0640213358950827,414.900000035763,6,0,12,9,1,"alternating_diff_1","4lj0bpd5w5",0.898102137592243,0.336788301597091,-3.85987575898078,13.3836852827903,-5.99014491447367,6.94252586685463,5,0
5.91435662768728,1.00199663995375,304.300000011921,6,1,13,9,1,"alternating_diff_1","4lj0bpd5w5",0.898102137592243,0.336788301597091,-3.85987575898078,13.3836852827903,-5.99014491447367,6.94252586685463,6,0
6.9947802518584,0.944374046664628,213.5,7,1,14,9,1,"alternating_diff_1","4lj0bpd5w5",0.898102137592243,0.336788301597091,-3.85987575898078,13.3836852827903,-5.99014491447367,6.94252586685463,6,1
NA,NA,NA,0,0,0,6,NA,"triangle_1","p4j9zv8tlc",NA,NA,NA,NA,NA,NA,NA,NA
NA,NA,NA,1,0,1,6,NA,"triangle_1","p4j9zv8tlc",0.268256730430439,0.100596273911414,-2.07526461213221,3.07526461213221,-1.64277332450434,2.22012359369397,0,0
NA,NA,NA,0.5,0.866025403784439,2,6,NA,"triangle_1","p4j9zv8tlc",0.268256730430439,0.100596273911414,-2.07526461213221,3.07526461213221,-1.64277332450434,2.22012359369397,1,0
0.0338791751059659,0.0709329544742934,1639.89999999944,-2.22044604925031e-16,3.33066907387547e-16,3,6,1,"triangle_1","p4j9zv8tlc",0.268256730430439,0.100596273911414,-2.07526461213221,3.07526461213221,-1.64277332450434,2.22012359369397,0.5,0.866025403784439
0.469325203830393,-0.634366951206117,2342,1,8.81375475580763e-17,4,6,0,"triangle_1","p4j9zv8tlc",0.268256730430439,0.100596273911414,-2.07526461213221,3.07526461213221,-1.64277332450434,2.22012359369397,-2.22044604925031e-16,3.33066907387547e-16
1.40154768786015,0.837563286735609,5089.19999999925,0.500000000000001,0.866025403784439,5,6,0,"triangle_1","p4j9zv8tlc",0.268256730430439,0.100596273911414,-2.07526461213221,3.07526461213221,-1.64277332450434,2.22012359369397,1,8.81375475580763e-17
0.00321396181551359,0.00960252789338822,1547.79999999981,-7.7715611723761e-16,1.4432899320127e-15,6,6,1,"triangle_1","p4j9zv8tlc",0.268256730430439,0.100596273911414,-2.07526461213221,3.07526461213221,-1.64277332450434,2.22012359369397,0.500000000000001,0.866025403784439
0.966101659135725,0.0218686132095691,960.5,0.999999999999999,-8.22925627046488e-16,7,6,1,"triangle_1","p4j9zv8tlc",0.268256730430439,0.100596273911414,-2.07526461213221,3.07526461213221,-1.64277332450434,2.22012359369397,-7.7715611723761e-16,1.4432899320127e-15
0.487724331804665,0.868228500026061,310.599999999627,0.500000000000002,0.866025403784439,8,6,1,"triangle_1","p4j9zv8tlc",0.268256730430439,0.100596273911414,-2.07526461213221,3.07526461213221,-1.64277332450434,2.22012359369397,0.999999999999999,-8.22925627046488e-16
-0.00291908084257697,0.0280016558676597,127.799999999814,2.22044604925031e-16,1.66533453693773e-15,9,6,1,"triangle_1","p4j9zv8tlc",0.268256730430439,0.100596273911414,-2.07526461213221,3.07526461213221,-1.64277332450434,2.22012359369397,0.500000000000002,0.866025403784439
0.984500787109997,-0.014929642738974,827.799999999814,1,9.30546457449323e-16,10,6,1,"triangle_1","p4j9zv8tlc",0.268256730430439,0.100596273911414,-2.07526461213221,3.07526461213221,-1.64277332450434,2.22012359369397,2.22044604925031e-16,1.66533453693773e-15
0.481591289146574,0.86209545736797,810.199999999255,0.5,0.866025403784439,11,6,1,"triangle_1","p4j9zv8tlc",0.268256730430439,0.100596273911414,-2.07526461213221,3.07526461213221,-1.64277332450434,2.22012359369397,1,9.30546457449323e-16
-0.0151851661587581,0.00960252789338822,726.200000000186,1.16573417585641e-15,0,12,6,1,"triangle_1","p4j9zv8tlc",0.268256730430439,0.100596273911414,-2.07526461213221,3.07526461213221,-1.64277332450434,2.22012359369397,0.5,0.866025403784439
0.996766872426178,-0.0026635574227929,895,1,2.57299623948262e-15,13,6,1,"triangle_1","p4j9zv8tlc",0.268256730430439,0.100596273911414,-2.07526461213221,3.07526461213221,-1.64277332450434,2.22012359369397,1.16573417585641e-15,0
0.481591289146574,0.84982937205179,893.299999999814,0.499999999999998,0.866025403784439,14,6,1,"triangle_1","p4j9zv8tlc",0.268256730430439,0.100596273911414,-2.07526461213221,3.07526461213221,-1.64277332450434,2.22012359369397,1,2.57299623948262e-15
NA,NA,NA,0,0,0,2,NA,"3_pts","0jul01nsqf",NA,NA,NA,NA,NA,NA,NA,NA
NA,NA,NA,1,0,1,2,NA,"3_pts","0jul01nsqf",0.536513460860874,0.201192547822828,-4.1505292242644,6.15052922426439,-3.8628969181983,3.8628969181983,0,0
NA,NA,NA,2,0,2,2,NA,"3_pts","0jul01nsqf",0.536513460860874,0.201192547822828,-4.1505292242644,6.15052922426439,-3.8628969181983,3.8628969181983,1,0
1.98224273573815,-1.09282086087109,6459.30000001192,0,0,3,2,0,"3_pts","0jul01nsqf",0.536513460860874,0.201192547822828,-4.1505292242644,6.15052922426439,-3.8628969181983,3.8628969181983,2,0
0.938037165960021,0.0133291071142234,3278.30000001192,1,0,4,2,1,"3_pts","0jul01nsqf",0.536513460860874,0.201192547822828,-4.1505292242644,6.15052922426439,-3.8628969181983,3.8628969181983,0,0
1.94684593676262,0.00447990737034099,313.40000000596,2,0,5,2,1,"3_pts","0jul01nsqf",0.536513460860874,0.201192547822828,-4.1505292242644,6.15052922426439,-3.8628969181983,3.8628969181983,1,0
-0.00882720663540315,0.00447990737034099,300.899999976158,0,0,6,2,1,"3_pts","0jul01nsqf",0.536513460860874,0.201192547822828,-4.1505292242644,6.15052922426439,-3.8628969181983,3.8628969181983,2,0
0.973433964935551,0.0310275066019883,254,1,0,7,2,1,"3_pts","0jul01nsqf",0.536513460860874,0.201192547822828,-4.1505292242644,6.15052922426439,-3.8628969181983,3.8628969181983,0,0
1.96454433625039,0.0310275066019883,384.299999982119,2,0,8,2,1,"3_pts","0jul01nsqf",0.536513460860874,0.201192547822828,-4.1505292242644,6.15052922426439,-3.8628969181983,3.8628969181983,1,0
0.0265695923401266,-0.0220676918613063,232,0,0,9,2,1,"3_pts","0jul01nsqf",0.536513460860874,0.201192547822828,-4.1505292242644,6.15052922426439,-3.8628969181983,3.8628969181983,2,0
0.991132364423317,-0.00436929237354144,277.200000017881,1,0,10,2,1,"3_pts","0jul01nsqf",0.536513460860874,0.201192547822828,-4.1505292242644,6.15052922426439,-3.8628969181983,3.8628969181983,0,0
1.96454433625039,0.0133291071142234,307.09999999404,2,0,11,2,1,"3_pts","0jul01nsqf",0.536513460860874,0.201192547822828,-4.1505292242644,6.15052922426439,-3.8628969181983,3.8628969181983,1,0
0.0177203925962441,-0.0309168916051887,310.799999982119,0,0,12,2,1,"3_pts","0jul01nsqf",0.536513460860874,0.201192547822828,-4.1505292242644,6.15052922426439,-3.8628969181983,3.8628969181983,2,0
1.05307676263049,0.00447990737034099,244.59999999404,1,0,13,2,1,"3_pts","0jul01nsqf",0.536513460860874,0.201192547822828,-4.1505292242644,6.15052922426439,-3.8628969181983,3.8628969181983,0,0
1.98224273573815,0.00447990737034099,115.100000023842,2,0,14,2,1,"3_pts","0jul01nsqf",0.536513460860874,0.201192547822828,-4.1505292242644,6.15052922426439,-3.8628969181983,3.8628969181983,1,0
NA,NA,NA,0,0,0,5,NA,"zigzag_widening","lw2cc8c6k7",NA,NA,NA,NA,NA,NA,NA,NA
NA,NA,NA,-2.44315781172409,1.13180382885532,1,5,NA,"zigzag_widening","lw2cc8c6k7",3.22021990474752,1.20758246428032,-38.8404294082047,22.9877927629476,-29.3565238686536,17.0146427597107,0,0
NA,NA,NA,-1.11135026448239,-1.73634690935738,2,5,NA,"zigzag_widening","lw2cc8c6k7",3.22021990474752,1.20758246428032,-38.8404294082047,22.9877927629476,-29.3565238686536,17.0146427597107,-2.44315781172409,1.13180382885532
0.118246269557673,0.143739956440186,1838.80000000075,-4.24086541420026,0.12272138623758,3,5,0,"zigzag_widening","lw2cc8c6k7",3.22021990474752,1.20758246428032,-38.8404294082047,22.9877927629476,-29.3565238686536,17.0146427597107,-1.11135026448239,-1.73634690935738
-4.05524945516304,-3.36441587013664,663.20000000298,-2.22270052896478,-3.47269381871476,4,5,1,"zigzag_widening","lw2cc8c6k7",3.22021990474752,1.20758246428032,-38.8404294082047,22.9877927629476,-29.3565238686536,17.0146427597107,-4.24086541420026,0.12272138623758
-7.07952171945341,-0.521599941703695,27.1000000014901,-6.03857301667643,-0.886361056380159,5,5,1,"zigzag_widening","lw2cc8c6k7",3.22021990474752,1.20758246428032,-38.8404294082047,22.9877927629476,-29.3565238686536,17.0146427597107,-2.22270052896478,-3.47269381871476
-4.47864757216369,-4.6950956664244,805.29999999702,-3.33405079344717,-5.20904072807214,6,5,1,"zigzag_widening","lw2cc8c6k7",3.22021990474752,1.20758246428032,-38.8404294082047,22.9877927629476,-29.3565238686536,17.0146427597107,-6.03857301667643,-0.886361056380159
-8.53117240631278,-2.27567785499211,301.300000000745,-7.8362806191526,-1.8954434989979,7,5,1,"zigzag_widening","lw2cc8c6k7",3.22021990474752,1.20758246428032,-38.8404294082047,22.9877927629476,-29.3565238686536,17.0146427597107,-3.33405079344717,-5.20904072807214
-5.26495836087918,-6.63062991557024,212.900000002235,-4.44540105792956,-6.94538763742952,8,5,1,"zigzag_widening","lw2cc8c6k7",3.22021990474752,1.20758246428032,-38.8404294082047,22.9877927629476,-29.3565238686536,17.0146427597107,-7.8362806191526,-1.8954434989979
-9.74088131202893,-3.30393042485083,494.599999997765,-9.63398822162877,-2.90452594161564,9,5,1,"zigzag_widening","lw2cc8c6k7",3.22021990474752,1.20758246428032,-38.8404294082047,22.9877927629476,-29.3565238686536,17.0146427597107,-4.44540105792956,-6.94538763742952
-6.11175459488049,-8.14276604771543,424.800000000745,-5.55675132241195,-8.6817345467869,10,5,1,"zigzag_widening","lw2cc8c6k7",3.22021990474752,1.20758246428032,-38.8404294082047,22.9877927629476,-29.3565238686536,17.0146427597107,-9.63398822162877,-2.90452594161564
-11.615930115889,-4.09024121356633,97.6999999992549,-11.4316958241049,-3.91360838423338,11,5,1,"zigzag_widening","lw2cc8c6k7",3.22021990474752,1.20758246428032,-38.8404294082047,22.9877927629476,-29.3565238686536,17.0146427597107,-5.55675132241195,-8.6817345467869
-7.20049261002502,-9.89684396100384,35.4000000022352,-6.66810158689434,-10.4180814561443,12,5,1,"zigzag_widening","lw2cc8c6k7",3.22021990474752,1.20758246428032,-38.8404294082047,22.9877927629476,-29.3565238686536,17.0146427597107,-11.4316958241049,-3.91360838423338
-13.3095225838916,-4.87655200228183,55.8000000007451,-13.2294034265811,-4.92269082685112,13,5,1,"zigzag_widening","lw2cc8c6k7",3.22021990474752,1.20758246428032,-38.8404294082047,22.9877927629476,-29.3565238686536,17.0146427597107,-6.66810158689434,-10.4180814561443
-8.53117240631278,-11.4694655384348,972.099999997765,-7.77945185137673,-12.1544283655017,14,5,1,"zigzag_widening","lw2cc8c6k7",3.22021990474752,1.20758246428032,-38.8404294082047,22.9877927629476,-29.3565238686536,17.0146427597107,-13.2294034265811,-4.92269082685112
NA,NA,NA,0,0,0,4,NA,"stairs","2erutzn4hb",NA,NA,NA,NA,NA,NA,NA,NA
NA,NA,NA,-0.483688648008949,1.94063012750686,1,4,NA,"stairs","2erutzn4hb",2.21085509981036,0.829070662428886,-33.1769022905807,9.27151562577831,-4.34448959292318,27.491823844346,0,0
NA,NA,NA,-2.4616967350034,2.23640708364876,2,4,NA,"stairs","2erutzn4hb",2.21085509981036,0.829070662428886,-33.1769022905807,9.27151562577831,-4.34448959292318,27.491823844346,-0.483688648008949,1.94063012750686
-2.50784243921312,4.5979373623466,2288.5,-2.94538538301234,4.17703721115561,3,4,1,"stairs","2erutzn4hb",2.21085509981036,0.829070662428886,-33.1769022905807,9.27151562577831,-4.34448959292318,27.491823844346,-2.4616967350034,2.23640708364876
-5.33645849643604,4.64588000738428,302.600000008941,-4.92339347000679,4.47281416729751,4,4,1,"stairs","2erutzn4hb",2.21085509981036,0.829070662428886,-33.1769022905807,9.27151562577831,-4.34448959292318,27.491823844346,-2.94538538301234,4.17703721115561
-5.57617172162443,6.85124167911741,246.20000000298,-5.40708211801574,6.41344429480437,5,4,1,"stairs","2erutzn4hb",2.21085509981036,0.829070662428886,-33.1769022905807,9.27151562577831,-4.34448959292318,27.491823844346,-4.92339347000679,4.47281416729751
-8.21301719869665,7.13889754934347,21.2999999970198,-7.38509020501019,6.70922125094627,6,4,1,"stairs","2erutzn4hb",2.21085509981036,0.829070662428886,-33.1769022905807,9.27151562577831,-4.34448959292318,27.491823844346,-5.40708211801574,6.41344429480437
-8.21301719869665,8.91277541573751,194.79999999702,-7.86877885301914,8.64985137845313,7,4,1,"stairs","2erutzn4hb",2.21085509981036,0.829070662428886,-33.1769022905807,9.27151562577831,-4.34448959292318,27.491823844346,-7.38509020501019,6.70922125094627
-10.1786656452414,9.3442592210766,255.5,-9.84678694001358,8.94562833459503,8,4,1,"stairs","2erutzn4hb",2.21085509981036,0.829070662428886,-33.1769022905807,9.27151562577831,-4.34448959292318,27.491823844346,-7.86877885301914,8.64985137845313
-10.3224935803544,11.1181370874706,288.199999988079,-10.3304755880225,10.8862584621019,9,4,1,"stairs","2erutzn4hb",2.21085509981036,0.829070662428886,-33.1769022905807,9.27151562577831,-4.34448959292318,27.491823844346,-9.84678694001358,8.94562833459503
-12.6716831872006,11.5975635378474,860.5,-12.308483675017,11.1820354182438,10,4,1,"stairs","2erutzn4hb",2.21085509981036,0.829070662428886,-33.1769022905807,9.27151562577831,-4.34448959292318,27.491823844346,-10.3304755880225,10.8862584621019
-12.6716831872006,13.5152693393545,459.5,-12.7921723230259,13.1226655457506,11,4,1,"stairs","2erutzn4hb",2.21085509981036,0.829070662428886,-33.1769022905807,9.27151562577831,-4.34448959292318,27.491823844346,-12.308483675017,11.1820354182438
-15.3085286642728,13.6590972744675,125,-14.7701804100204,13.4184425018925,12,4,1,"stairs","2erutzn4hb",2.21085509981036,0.829070662428886,-33.1769022905807,9.27151562577831,-4.34448959292318,27.491823844346,-12.7921723230259,13.1226655457506
-15.5482418894612,15.6247457210123,438.600000008941,-15.2538690580293,15.3590726293994,13,4,1,"stairs","2erutzn4hb",2.21085509981036,0.829070662428886,-33.1769022905807,9.27151562577831,-4.34448959292318,27.491823844346,-14.7701804100204,13.4184425018925
-17.5618329810436,15.7685736561253,53.5999999940395,-17.2318771450238,15.6548495855413,14,4,1,"stairs","2erutzn4hb",2.21085509981036,0.829070662428886,-33.1769022905807,9.27151562577831,-4.34448959292318,27.491823844346,-15.2538690580293,15.3590726293994
NA,NA,NA,0,0,0,3,NA,"hourglass_1","0jul01nsqf",NA,NA,NA,NA,NA,NA,NA,NA
NA,NA,NA,1,0,1,3,NA,"hourglass_1","0jul01nsqf",0.377464158769053,0.141549059538395,-3.14746544799244,4.09984640037339,-2.24155146694671,3.19393241932766,0,0
NA,NA,NA,0,1,2,3,NA,"hourglass_1","0jul01nsqf",0.377464158769053,0.141549059538395,-3.14746544799244,4.09984640037339,-2.24155146694671,3.19393241932766,1,0
0.986697726347667,1.0521211001578,1136.19999998808,1,1,3,3,1,"hourglass_1","0jul01nsqf",0.377464158769053,0.141549059538395,-3.14746544799244,4.09984640037339,-2.24155146694671,3.19393241932766,0,1
0.0279158484640947,1.86148242564393,1271.10000002384,0,0,4,3,0,"hourglass_1","0jul01nsqf",0.377464158769053,0.141549059538395,-3.14746544799244,4.09984640037339,-2.24155146694671,3.19393241932766,1,1
1.03027872079692,-0.0249520483737493,834.199999988079,1,0,5,3,1,"hourglass_1","0jul01nsqf",0.377464158769053,0.141549059538395,-3.14746544799244,4.09984640037339,-2.24155146694671,3.19393241932766,0,0
-0.0156651459851584,0.977410823959076,397.700000017881,0,1,6,3,1,"hourglass_1","0jul01nsqf",0.377464158769053,0.141549059538395,-3.14746544799244,4.09984640037339,-2.24155146694671,3.19393241932766,1,0
1.04273043349671,0.971184967609183,95.9000000059605,1,1,7,3,1,"hourglass_1","0jul01nsqf",0.377464158769053,0.141549059538395,-3.14746544799244,4.09984640037339,-2.24155146694671,3.19393241932766,0,1
-0.00943928963526552,-0.0187261920238559,119.09999999404,0,0,8,3,1,"hourglass_1","0jul01nsqf",0.377464158769053,0.141549059538395,-3.14746544799244,4.09984640037339,-2.24155146694671,3.19393241932766,1,1
0.91821330649884,-0.0311779047236427,103,1,0,9,3,1,"hourglass_1","0jul01nsqf",0.377464158769053,0.141549059538395,-3.14746544799244,4.09984640037339,-2.24155146694671,3.19393241932766,0,0
-0.0405685713847319,0.915152260460143,199.5,0,1,10,3,1,"hourglass_1","0jul01nsqf",0.377464158769053,0.141549059538395,-3.14746544799244,4.09984640037339,-2.24155146694671,3.19393241932766,1,0
0.9555684445982,1.02721767475822,44.7999999821186,1,1,11,3,1,"hourglass_1","0jul01nsqf",0.377464158769053,0.141549059538395,-3.14746544799244,4.09984640037339,-2.24155146694671,3.19393241932766,0,1
-0.0530202840845186,0.055984084174864,232.399999976158,0,0,12,3,1,"hourglass_1","0jul01nsqf",0.377464158769053,0.141549059538395,-3.14746544799244,4.09984640037339,-2.24155146694671,3.19393241932766,1,1
